%time,field.header.seq,field.header.stamp,field.header.frame_id,field.orientation.x,field.orientation.y,field.orientation.z,field.orientation.w,field.orientation_covariance0,field.orientation_covariance1,field.orientation_covariance2,field.orientation_covariance3,field.orientation_covariance4,field.orientation_covariance5,field.orientation_covariance6,field.orientation_covariance7,field.orientation_covariance8,field.angular_velocity.x,field.angular_velocity.y,field.angular_velocity.z,field.angular_velocity_covariance0,field.angular_velocity_covariance1,field.angular_velocity_covariance2,field.angular_velocity_covariance3,field.angular_velocity_covariance4,field.angular_velocity_covariance5,field.angular_velocity_covariance6,field.angular_velocity_covariance7,field.angular_velocity_covariance8,field.linear_acceleration.x,field.linear_acceleration.y,field.linear_acceleration.z,field.linear_acceleration_covariance0,field.linear_acceleration_covariance1,field.linear_acceleration_covariance2,field.linear_acceleration_covariance3,field.linear_acceleration_covariance4,field.linear_acceleration_covariance5,field.linear_acceleration_covariance6,field.linear_acceleration_covariance7,field.linear_acceleration_covariance8
1704780507644091895,8840,1704780507643747110,imu_link,0.002367592907279771,0.009096047067629436,-0.9995084772020488,-0.029907531372722212,0.0,0.0,0.0,0.0,0.0,0.0,0.0,0.0,0.0,-0.00017453292519943296,0.0,-0.00017453292519943296,0.0,0.0,0.0,0.0,0.0,0.0,0.0,0.0,0.0,-0.04118793,-0.181423025,9.82430197,0.0,0.0,0.0,0.0,0.0,0.0,0.0,0.0,0.0
1704780507743416081,8841,1704780507743173689,imu_link,0.002367592907279771,0.009096047067629436,-0.9995084772020488,-0.029907531372722212,0.0,0.0,0.0,0.0,0.0,0.0,0.0,0.0,0.0,0.00034906585039886593,-0.00017453292519943296,0.0005235987755982988,0.0,0.0,0.0,0.0,0.0,0.0,0.0,0.0,0.0,-0.040207265,-0.18240368999999998,9.82037931,0.0,0.0,0.0,0.0,0.0,0.0,0.0,0.0,0.0
1704780507844313689,8842,1704780507844018989,imu_link,0.002367592907279771,0.009096047067629436,-0.9995084772020488,-0.029907531372722212,0.0,0.0,0.0,0.0,0.0,0.0,0.0,0.0,0.0,-0.00017453292519943296,-0.00034906585039886593,-0.0,0.0,0.0,0.0,0.0,0.0,0.0,0.0,0.0,0.0,-0.04118793,-0.179461695,9.825282634999999,0.0,0.0,0.0,0.0,0.0,0.0,0.0,0.0,0.0
1704780507943850028,8843,1704780507943575764,imu_link,0.002367592907279771,0.009096047067629436,-0.9995084772020488,-0.029907531372722212,0.0,0.0,0.0,0.0,0.0,0.0,0.0,0.0,0.0,0.00017453292519943296,-0.00017453292519943296,0.00034906585039886593,0.0,0.0,0.0,0.0,0.0,0.0,0.0,0.0,0.0,-0.040207265,-0.18436502,9.825282634999999,0.0,0.0,0.0,0.0,0.0,0.0,0.0,0.0,0.0
1704780508043766709,8844,1704780508043475694,imu_link,0.002366799166284806,0.009096253631996258,-0.9995110831637334,-0.029820312949885176,0.0,0.0,0.0,0.0,0.0,0.0,0.0,0.0,0.0,-0.00017453292519943296,-0.0006981317007977319,0.0005235987755982988,0.0,0.0,0.0,0.0,0.0,0.0,0.0,0.0,0.0,-0.04118793,-0.18044236,9.82234064,0.0,0.0,0.0,0.0,0.0,0.0,0.0,0.0,0.0
1704780508143466065,8845,1704780508143066556,imu_link,0.002366799166284806,0.009096253631996258,-0.9995110831637334,-0.029820312949885176,0.0,0.0,0.0,0.0,0.0,0.0,0.0,0.0,0.0,0.00017453292519943296,-0.0,-0.00017453292519943296,0.0,0.0,0.0,0.0,0.0,0.0,0.0,0.0,0.0,-0.0392266,-0.18240368999999998,9.823321305,0.0,0.0,0.0,0.0,0.0,0.0,0.0,0.0,0.0
1704780508244032874,8846,1704780508243760018,imu_link,0.002366799166284806,0.009096253631996258,-0.9995110831637334,-0.029820312949885176,0.0,0.0,0.0,0.0,0.0,0.0,0.0,0.0,0.0,-0.0005235987755982988,-0.0,0.00034906585039886593,0.0,0.0,0.0,0.0,0.0,0.0,0.0,0.0,0.0,-0.04118793,-0.18044236,9.823321305,0.0,0.0,0.0,0.0,0.0,0.0,0.0,0.0,0.0
1704780508343545469,8847,1704780508343293268,imu_link,0.002367592907279771,0.009096047067629436,-0.9995084772020488,-0.029907531372722212,0.0,0.0,0.0,0.0,0.0,0.0,0.0,0.0,0.0,-0.00017453292519943296,0.00017453292519943296,0.00017453292519943296,0.0,0.0,0.0,0.0,0.0,0.0,0.0,0.0,0.0,-0.040207265,-0.183384355,9.823321305,0.0,0.0,0.0,0.0,0.0,0.0,0.0,0.0,0.0
1704780508443329453,8848,1704780508443084300,imu_link,0.002367592907279771,0.009096047067629436,-0.9995084772020488,-0.029907531372722212,0.0,0.0,0.0,0.0,0.0,0.0,0.0,0.0,0.0,0.00034906585039886593,-0.0,-0.00017453292519943296,0.0,0.0,0.0,0.0,0.0,0.0,0.0,0.0,0.0,-0.040207265,-0.181423025,9.82430197,0.0,0.0,0.0,0.0,0.0,0.0,0.0,0.0,0.0
1704780508542685896,8849,1704780508542483507,imu_link,0.002367592907279771,0.009096047067629436,-0.9995084772020488,-0.029907531372722212,0.0,0.0,0.0,0.0,0.0,0.0,0.0,0.0,0.0,0.0005235987755982988,0.00017453292519943296,0.00017453292519943296,0.0,0.0,0.0,0.0,0.0,0.0,0.0,0.0,0.0,-0.040207265,-0.18240368999999998,9.82430197,0.0,0.0,0.0,0.0,0.0,0.0,0.0,0.0,0.0
1704780508643578433,8850,1704780508643384848,imu_link,0.002366799166284806,0.009096253631996258,-0.9995110831637334,-0.029820312949885176,0.0,0.0,0.0,0.0,0.0,0.0,0.0,0.0,0.0,-0.00017453292519943296,-0.0,0.0006981317007977319,0.0,0.0,0.0,0.0,0.0,0.0,0.0,0.0,0.0,-0.040207265,-0.183384355,9.82234064,0.0,0.0,0.0,0.0,0.0,0.0,0.0,0.0,0.0
1704780508743214585,8851,1704780508742895601,imu_link,0.002366799166284806,0.009096253631996258,-0.9995110831637334,-0.029820312949885176,0.0,0.0,0.0,0.0,0.0,0.0,0.0,0.0,0.0,0.0,-0.00017453292519943296,0.00034906585039886593,0.0,0.0,0.0,0.0,0.0,0.0,0.0,0.0,0.0,-0.04118793,-0.18044236,9.82430197,0.0,0.0,0.0,0.0,0.0,0.0,0.0,0.0,0.0
1704780508843850318,8852,1704780508843618356,imu_link,0.002366799166284806,0.009096253631996258,-0.9995110831637334,-0.029820312949885176,0.0,0.0,0.0,0.0,0.0,0.0,0.0,0.0,0.0,0.00017453292519943296,-0.00017453292519943296,0.0,0.0,0.0,0.0,0.0,0.0,0.0,0.0,0.0,0.0,-0.0392266,-0.183384355,9.823321305,0.0,0.0,0.0,0.0,0.0,0.0,0.0,0.0,0.0
1704780508943695002,8853,1704780508943319327,imu_link,0.002366799166284806,0.009096253631996258,-0.9995110831637334,-0.029820312949885176,0.0,0.0,0.0,0.0,0.0,0.0,0.0,0.0,0.0,0.00017453292519943296,0.00034906585039886593,-0.00034906585039886593,0.0,0.0,0.0,0.0,0.0,0.0,0.0,0.0,0.0,-0.040207265,-0.18240368999999998,9.821359975,0.0,0.0,0.0,0.0,0.0,0.0,0.0,0.0,0.0
1704780509042764418,8854,1704780509042508993,imu_link,0.002366799166284806,0.009096253631996258,-0.9995110831637334,-0.029820312949885176,0.0,0.0,0.0,0.0,0.0,0.0,0.0,0.0,0.0,0.0,0.00017453292519943296,-0.0,0.0,0.0,0.0,0.0,0.0,0.0,0.0,0.0,0.0,-0.040207265,-0.18240368999999998,9.821359975,0.0,0.0,0.0,0.0,0.0,0.0,0.0,0.0,0.0
1704780509143407958,8855,1704780509143078665,imu_link,0.002366799166284806,0.009096253631996258,-0.9995110831637334,-0.029820312949885176,0.0,0.0,0.0,0.0,0.0,0.0,0.0,0.0,0.0,0.00017453292519943296,-0.00017453292519943296,0.00034906585039886593,0.0,0.0,0.0,0.0,0.0,0.0,0.0,0.0,0.0,-0.04118793,-0.18240368999999998,9.823321305,0.0,0.0,0.0,0.0,0.0,0.0,0.0,0.0,0.0
1704780509243760251,8856,1704780509243488388,imu_link,0.002367592907279771,0.009096047067629436,-0.9995084772020488,-0.029907531372722212,0.0,0.0,0.0,0.0,0.0,0.0,0.0,0.0,0.0,0.00034906585039886593,-0.00034906585039886593,-0.00034906585039886593,0.0,0.0,0.0,0.0,0.0,0.0,0.0,0.0,0.0,-0.036284605,-0.183384355,9.821359975,0.0,0.0,0.0,0.0,0.0,0.0,0.0,0.0,0.0
1704780509343102425,8857,1704780509342912100,imu_link,0.002367592907279771,0.009096047067629436,-0.9995084772020488,-0.029907531372722212,0.0,0.0,0.0,0.0,0.0,0.0,0.0,0.0,0.0,-0.0013962634015954637,-0.002617993877991494,0.0006981317007977319,0.0,0.0,0.0,0.0,0.0,0.0,0.0,0.0,0.0,0.09120184499999999,-0.189268345,9.855683249999998,0.0,0.0,0.0,0.0,0.0,0.0,0.0,0.0,0.0
1704780509442808207,8858,1704780509442534472,imu_link,0.0020205069345082677,0.009193899856279037,-0.9995108590348568,-0.029823353744384558,0.0,0.0,0.0,0.0,0.0,0.0,0.0,0.0,0.0,-0.0012217304763960308,-0.00034906585039886593,0.0010471975511965976,0.0,0.0,0.0,0.0,0.0,0.0,0.0,0.0,0.0,0.587418335,-0.17455837,9.79684335,0.0,0.0,0.0,0.0,0.0,0.0,0.0,0.0,0.0
1704780509542605199,8859,1704780509542243061,imu_link,0.0021077305956709235,0.009191294426916468,-0.999510727082953,-0.02982254222229363,0.0,0.0,0.0,0.0,0.0,0.0,0.0,0.0,0.0,0.0010471975511965976,0.004014257279586958,-0.0015707963267948967,0.0,0.0,0.0,0.0,0.0,0.0,0.0,0.0,0.0,0.32950344,-0.20790097999999999,9.855683249999998,0.0,0.0,0.0,0.0,0.0,0.0,0.0,0.0,0.0
1704780509643409758,8860,1704780509643093636,imu_link,0.00184266170864246,0.009112047174421087,-0.9995144978463325,-0.029737918372209588,0.0,0.0,0.0,0.0,0.0,0.0,0.0,0.0,0.0,-0.0012217304763960308,-0.007853981633974483,0.002617993877991494,0.0,0.0,0.0,0.0,0.0,0.0,0.0,0.0,0.0,0.557998385,-0.14317708999999998,9.73996478,0.0,0.0,0.0,0.0,0.0,0.0,0.0,0.0,0.0
1704780509743297306,8861,1704780509742974965,imu_link,0.0021915576890719425,0.009101656083379263,-0.9995139840719248,-0.029734703228770917,0.0,0.0,0.0,0.0,0.0,0.0,0.0,0.0,0.0,-0.0,0.00017453292519943296,-0.0010471975511965976,0.0,0.0,0.0,0.0,0.0,0.0,0.0,0.0,0.0,0.38834334,-0.22457228499999998,9.779191379999999,0.0,0.0,0.0,0.0,0.0,0.0,0.0,0.0,0.0
1704780509843177511,8862,1704780509842849242,imu_link,0.0019298856973697916,0.009109449506565847,-0.9995143808203772,-0.029737114926303453,0.0,0.0,0.0,0.0,0.0,0.0,0.0,0.0,0.0,0.0024434609527920616,0.004537856055185257,0.0017453292519943296,0.0,0.0,0.0,0.0,0.0,0.0,0.0,0.0,0.0,0.61781895,-0.16867437999999998,9.7674234,0.0,0.0,0.0,0.0,0.0,0.0,0.0,0.0,0.0
1704780509944014392,8863,1704780509943524495,imu_link,0.002101738727540457,0.009017030472029845,-0.999514914617973,-0.029735690878368075,0.0,0.0,0.0,0.0,0.0,0.0,0.0,0.0,0.0,-0.0017453292519943296,-0.0036651914291880917,-0.0024434609527920616,0.0,0.0,0.0,0.0,0.0,0.0,0.0,0.0,0.0,0.520733115,-0.167693715,9.705641505,0.0,0.0,0.0,0.0,0.0,0.0,0.0,0.0,0.0
1704780510042863833,8864,1704780510042515864,imu_link,0.002189749458254616,0.009014241559020605,-0.9995121760219535,-0.02982211310898512,0.0,0.0,0.0,0.0,0.0,0.0,0.0,0.0,0.0,-0.0036651914291880917,0.007853981633974483,-0.0005235987755982988,0.0,0.0,0.0,0.0,0.0,0.0,0.0,0.0,0.0,0.59428299,-0.179461695,9.835089284999999,0.0,0.0,0.0,0.0,0.0,0.0,0.0,0.0,0.0
1704780510142496047,8865,1704780510142193476,imu_link,0.002276973227038332,0.009011636015413025,-0.9995120283918753,-0.029821316356059845,0.0,0.0,0.0,0.0,0.0,0.0,0.0,0.0,0.0,0.00017453292519943296,0.0015707963267948967,0.0022689280275926286,0.0,0.0,0.0,0.0,0.0,0.0,0.0,0.0,0.0,0.46875787,-0.18240368999999998,9.800766009999998,0.0,0.0,0.0,0.0,0.0,0.0,0.0,0.0,0.0
1704780510243149669,8866,1704780510242935576,imu_link,0.002360815975682071,0.008922012223439229,-0.9995152539204422,-0.02973350679229981,0.0,0.0,0.0,0.0,0.0,0.0,0.0,0.0,0.0,0.002617993877991494,-0.003490658503988659,-0.0017453292519943296,0.0,0.0,0.0,0.0,0.0,0.0,0.0,0.0,0.0,0.392266,-0.22555294999999997,9.823321305,0.0,0.0,0.0,0.0,0.0,0.0,0.0,0.0,0.0
1704780510343467846,8867,1704780510343023540,imu_link,0.0022722199365548717,0.00874917145435981,-0.9995038833108426,-0.03017078490804847,0.0,0.0,0.0,0.0,0.0,0.0,0.0,0.0,0.0,0.011519173063162576,-0.0005235987755982988,-0.010821041362364843,0.0,0.0,0.0,0.0,0.0,0.0,0.0,0.0,0.0,0.4903325,-0.20593965,9.873335219999998,0.0,0.0,0.0,0.0,0.0,0.0,0.0,0.0,0.0
1704780510442377595,8868,1704780510442119468,imu_link,0.002272939460015018,0.008573139708934899,-0.9994840893815964,-0.030868917939948393,0.0,0.0,0.0,0.0,0.0,0.0,0.0,0.0,0.0,0.017104226669544427,-0.0019198621771937623,-0.013788101090755204,0.0,0.0,0.0,0.0,0.0,0.0,0.0,0.0,0.0,0.41776328999999995,-0.27262486999999996,9.935117114999999,0.0,0.0,0.0,0.0,0.0,0.0,0.0,0.0,0.0
1704780510542703531,8869,1704780510542279782,imu_link,0.00209142071906577,0.00814078538768135,-0.9994634725950002,-0.03165628722687959,0.0,0.0,0.0,0.0,0.0,0.0,0.0,0.0,0.0,0.013264502315156903,-0.002617993877991494,-0.016231562043547268,0.0,0.0,0.0,0.0,0.0,0.0,0.0,0.0,0.0,0.44522191,-0.14611908499999998,9.86352857,0.0,0.0,0.0,0.0,0.0,0.0,0.0,0.0,0.0
1704780510642944558,8870,1704780510642559739,imu_link,0.0021836046483139733,0.00804870886916082,-0.9994331920498575,-0.03261510057184768,0.0,0.0,0.0,0.0,0.0,0.0,0.0,0.0,0.0,0.006981317007977318,0.006806784082777885,-0.02199114857512855,0.0,0.0,0.0,0.0,0.0,0.0,0.0,0.0,0.0,0.43835725499999995,-0.19221033999999998,9.85960591,0.0,0.0,0.0,0.0,0.0,0.0,0.0,0.0,0.0
1704780510742944857,8871,1704780510742598822,imu_link,0.0018366123027371653,0.007883909925380286,-0.9994033302155754,-0.03357758736948962,0.0,0.0,0.0,0.0,0.0,0.0,0.0,0.0,0.0,0.006108652381980153,-0.007504915783575617,-0.01361356816555577,0.0,0.0,0.0,0.0,0.0,0.0,0.0,0.0,0.0,0.48935183499999996,-0.14709974999999997,9.980227704999999,0.0,0.0,0.0,0.0,0.0,0.0,0.0,0.0,0.0
1704780510843127699,8872,1704780510842829066,imu_link,0.001830152897730489,0.007533775764601642,-0.9993823290308116,-0.03427613140437857,0.0,0.0,0.0,0.0,0.0,0.0,0.0,0.0,0.0,0.00471238898038469,-0.006108652381980153,-0.017453292519943295,0.0,0.0,0.0,0.0,0.0,0.0,0.0,0.0,0.0,0.35696205999999997,-0.144157755,9.789978694999999,0.0,0.0,0.0,0.0,0.0,0.0,0.0,0.0,0.0
1704780510943270631,8873,1704780510942943108,imu_link,0.0012207656202966315,0.007379133573870356,-0.9993508800135809,-0.035240271495560596,0.0,0.0,0.0,0.0,0.0,0.0,0.0,0.0,0.0,0.0013962634015954637,-0.007330382858376183,-0.01815142422074103,0.0,0.0,0.0,0.0,0.0,0.0,0.0,0.0,0.0,0.42855060500000003,-0.155925735,9.809591995,0.0,0.0,0.0,0.0,0.0,0.0,0.0,0.0,0.0
1704780511042497770,8874,1704780511042223101,imu_link,0.0012278480893816177,0.007377958394442247,-0.9993165934474161,-0.036199505240417,0.0,0.0,0.0,0.0,0.0,0.0,0.0,0.0,0.0,0.0041887902047863905,-0.00017453292519943296,-0.023561944901923447,0.0,0.0,0.0,0.0,0.0,0.0,0.0,0.0,0.0,0.306948145,-0.26576021499999997,9.762520075,0.0,0.0,0.0,0.0,0.0,0.0,0.0,0.0,0.0
1704780511142130593,8875,1704780511141888497,imu_link,0.0013305854049982793,0.0074598086532317726,-0.9992544833481075,-0.037855756577354654,0.0,0.0,0.0,0.0,0.0,0.0,0.0,0.0,0.0,-0.004537856055185257,0.0010471975511965976,-0.03979350694547071,0.0,0.0,0.0,0.0,0.0,0.0,0.0,0.0,0.0,0.157887065,-0.161809725,9.67916355,0.0,0.0,0.0,0.0,0.0,0.0,0.0,0.0,0.0
1704780511243209034,8876,1704780511242878181,imu_link,0.001356663736965655,0.007718588361353505,-0.9991710254500429,-0.03994802571244894,0.0,0.0,0.0,0.0,0.0,0.0,0.0,0.0,0.0,-0.0027925268031909274,-0.002967059728390361,-0.04468042885105484,0.0,0.0,0.0,0.0,0.0,0.0,0.0,0.0,0.0,0.055897905,-0.31283213499999996,9.993957014999998,0.0,0.0,0.0,0.0,0.0,0.0,0.0,0.0,0.0
1704780511343301245,8877,1704780511342841681,imu_link,0.001280278383626065,0.007544691555112711,-0.99907551345457,-0.04230315510793126,0.0,0.0,0.0,0.0,0.0,0.0,0.0,0.0,0.0,0.007504915783575617,0.008552113334772213,-0.0497418836818384,0.0,0.0,0.0,0.0,0.0,0.0,0.0,0.0,0.0,-0.032361944999999996,-0.22457228499999998,9.592865029999999,0.0,0.0,0.0,0.0,0.0,0.0,0.0,0.0,0.0
1704780511442012246,8878,1704780511441741285,imu_link,0.0013793607820491152,0.007363041510864659,-0.998962590081255,-0.04491799863854753,0.0,0.0,0.0,0.0,0.0,0.0,0.0,0.0,0.0,0.004886921905584123,-0.009250245035569947,-0.05183627878423159,0.0,0.0,0.0,0.0,0.0,0.0,0.0,0.0,0.0,-0.14611908499999998,-0.19809432999999999,9.92236847,0.0,0.0,0.0,0.0,0.0,0.0,0.0,0.0,0.0
1704780511542264080,8879,1704780511542007840,imu_link,0.00105607372849958,0.007462891205362451,-0.9988286233454989,-0.04779718766697752,0.0,0.0,0.0,0.0,0.0,0.0,0.0,0.0,0.0,-0.0008726646259971648,-0.004014257279586958,-0.06335545184739416,0.0,0.0,0.0,0.0,0.0,0.0,0.0,0.0,0.0,-0.191229675,-0.263798885,9.692892859999999,0.0,0.0,0.0,0.0,0.0,0.0,0.0,0.0,0.0
1704780511642523776,8880,1704780511642246610,imu_link,0.0007379969405160672,0.007564212820249383,-0.998655085249673,-0.051286048296727796,0.0,0.0,0.0,0.0,0.0,0.0,0.0,0.0,0.0,0.0027925268031909274,-0.006283185307179587,-0.07312929565856242,0.0,0.0,0.0,0.0,0.0,0.0,0.0,0.0,0.0,-0.10493115499999998,-0.318716125,9.880199875,0.0,0.0,0.0,0.0,0.0,0.0,0.0,0.0,0.0
1704780511742934229,8881,1704780511742448508,imu_link,0.0005097838866456568,0.0076629309976552,-0.9984548880216614,-0.05503504514912165,0.0,0.0,0.0,0.0,0.0,0.0,0.0,0.0,0.0,0.0013962634015954637,-0.007330382858376183,-0.07888888219014369,0.0,0.0,0.0,0.0,0.0,0.0,0.0,0.0,0.0,-0.163771055,-0.27066354,10.051816249999998,0.0,0.0,0.0,0.0,0.0,0.0,0.0,0.0,0.0
1704780511843297678,8882,1704780511842918676,imu_link,-5.031009957414935e-05,0.007958246190094588,-0.998197602348729,-0.059482858469651574,0.0,0.0,0.0,0.0,0.0,0.0,0.0,0.0,0.0,-0.006806784082777885,-0.0017453292519943296,-0.09704030641088471,0.0,0.0,0.0,0.0,0.0,0.0,0.0,0.0,0.0,0.07256921,-0.303025485,9.69681552,0.0,0.0,0.0,0.0,0.0,0.0,0.0,0.0,0.0
1704780511942878344,8883,1704780511942619110,imu_link,9.538035106922366e-05,0.008213996530273764,-0.9978704446260338,-0.0647077808724013,0.0,0.0,0.0,0.0,0.0,0.0,0.0,0.0,0.0,-0.0006981317007977319,-0.0017453292519943296,-0.10855947947404729,0.0,0.0,0.0,0.0,0.0,0.0,0.0,0.0,0.0,-0.067665885,-0.43933792,9.995918345,0.0,0.0,0.0,0.0,0.0,0.0,0.0,0.0,0.0
1704780512042334464,8884,1704780512041918019,imu_link,0.00021059744704395142,0.007946041327999042,-0.9974895395690612,-0.07036643039284629,0.0,0.0,0.0,0.0,0.0,0.0,0.0,0.0,0.0,0.003490658503988659,0.012566370614359173,-0.12217304763960307,0.0,0.0,0.0,0.0,0.0,0.0,0.0,0.0,0.0,-0.083356525,-0.369710705,9.67720222,0.0,0.0,0.0,0.0,0.0,0.0,0.0,0.0,0.0
1704780512142526245,8885,1704780512142096165,imu_link,0.00025931800201476837,0.007857375619584906,-0.9969746702456699,-0.07732852831319421,0.0,0.0,0.0,0.0,0.0,0.0,0.0,0.0,0.0,-0.005235987755982988,-0.011344640137963142,-0.14974924982111348,0.0,0.0,0.0,0.0,0.0,0.0,0.0,0.0,0.0,-0.11179581,-0.30989014000000004,9.715448154999999,0.0,0.0,0.0,0.0,0.0,0.0,0.0,0.0,0.0
1704780512242689025,8886,1704780512242265899,imu_link,-0.00017093327046166268,0.008247466206972557,-0.9963331032611333,-0.08516042172876749,0.0,0.0,0.0,0.0,0.0,0.0,0.0,0.0,0.0,0.003490658503988659,-0.0024434609527920616,-0.16196655458507378,0.0,0.0,0.0,0.0,0.0,0.0,0.0,0.0,0.0,-0.087279185,-0.51386846,9.956691745,0.0,0.0,0.0,0.0,0.0,0.0,0.0,0.0,0.0
1704780512342823161,8887,1704780512342444548,imu_link,-0.0003163964542483937,0.007830519527525516,-0.9955879237520389,-0.09350544869855074,0.0,0.0,0.0,0.0,0.0,0.0,0.0,0.0,0.0,0.012566370614359173,-0.005759586531581288,-0.17348572764823633,0.0,0.0,0.0,0.0,0.0,0.0,0.0,0.0,0.0,-0.053936574999999994,-0.392266,9.678182885,0.0,0.0,0.0,0.0,0.0,0.0,0.0,0.0,0.0
1704780512442093331,8888,1704780512441630608,imu_link,-0.0007903243136158452,0.007626612138658205,-0.9946633918139904,-0.10288803215075132,0.0,0.0,0.0,0.0,0.0,0.0,0.0,0.0,0.0,-0.005235987755982988,-0.0015707963267948967,-0.1986184688769547,0.0,0.0,0.0,0.0,0.0,0.0,0.0,0.0,0.0,0.07256921,-0.24222425499999997,10.032202949999999,0.0,0.0,0.0,0.0,0.0,0.0,0.0,0.0,0.0
1704780512542084114,8889,1704780512541710684,imu_link,-0.0010395044108998353,0.007847142082257947,-0.9935587927842587,-0.11304099730985695,0.0,0.0,0.0,0.0,0.0,0.0,0.0,0.0,0.0,0.0017453292519943296,-0.010471975511965976,-0.20961404316451898,0.0,0.0,0.0,0.0,0.0,0.0,0.0,0.0,0.0,-0.057859234999999995,-0.52367511,9.73015813,0.0,0.0,0.0,0.0,0.0,0.0,0.0,0.0,0.0
1704780512642461327,8890,1704780512642025911,imu_link,-0.001454891952322352,0.007391865723644095,-0.9923232605903173,-0.12344144402076532,0.0,0.0,0.0,0.0,0.0,0.0,0.0,0.0,0.0,0.010995574287564275,0.002967059728390361,-0.20734511513692636,0.0,0.0,0.0,0.0,0.0,0.0,0.0,0.0,0.0,0.08531785499999998,-0.24222425499999997,9.925310464999999,0.0,0.0,0.0,0.0,0.0,0.0,0.0,0.0,0.0
1704780512742724419,8891,1704780512742253666,imu_link,-0.001313653052107388,0.007222176565674041,-0.9909660651166446,-0.13391180780105588,0.0,0.0,0.0,0.0,0.0,0.0,0.0,0.0,0.0,0.004014257279586958,0.0031415926535897933,-0.2150245638457014,0.0,0.0,0.0,0.0,0.0,0.0,0.0,0.0,0.0,0.16082906,-0.09904716499999999,9.834108619999999,0.0,0.0,0.0,0.0,0.0,0.0,0.0,0.0,0.0
1704780512842837322,8892,1704780512842409226,imu_link,-0.0011090879386270963,0.006950341572082742,-0.9896373866814628,-0.1434165456223959,0.0,0.0,0.0,0.0,0.0,0.0,0.0,0.0,0.0,0.004014257279586958,0.012042771838760872,-0.17191493132144145,0.0,0.0,0.0,0.0,0.0,0.0,0.0,0.0,0.0,0.083356525,-0.212804305,9.74192611,0.0,0.0,0.0,0.0,0.0,0.0,0.0,0.0,0.0
1704780512943117105,8893,1704780512942638887,imu_link,-0.0008182195906241494,0.006215554536153362,-0.9885650999926302,-0.15066433046700417,0.0,0.0,0.0,0.0,0.0,0.0,0.0,0.0,0.0,0.011344640137963142,0.0022689280275926286,-0.12671090369478832,0.0,0.0,0.0,0.0,0.0,0.0,0.0,0.0,0.0,0.042168594999999996,-0.024516625,10.02828029,0.0,0.0,0.0,0.0,0.0,0.0,0.0,0.0,0.0
1704780513042299361,8894,1704780513041743720,imu_link,-0.0007917687843156639,0.0061345265794938795,-0.9875720717751146,-0.15704503728435834,0.0,0.0,0.0,0.0,0.0,0.0,0.0,0.0,0.0,-0.0006981317007977319,0.004014257279586958,-0.14032447186034408,0.0,0.0,0.0,0.0,0.0,0.0,0.0,0.0,0.0,0.046091255,-0.27164420499999997,9.591884364999999,0.0,0.0,0.0,0.0,0.0,0.0,0.0,0.0,0.0
1704780513142198807,8895,1704780513141822880,imu_link,-0.0006612343962749882,0.006125773651026128,-0.9864089059165536,-0.16419350777286307,0.0,0.0,0.0,0.0,0.0,0.0,0.0,0.0,0.0,0.0005235987755982988,-0.0008726646259971648,-0.14503686084072878,0.0,0.0,0.0,0.0,0.0,0.0,0.0,0.0,0.0,0.00980665,-0.39030467,9.79488202,0.0,0.0,0.0,0.0,0.0,0.0,0.0,0.0,0.0
1704780513242317838,8896,1704780513241971142,imu_link,-0.00091861461611656,0.0049405088056534985,-0.9854237575303094,-0.17004342273306022,0.0,0.0,0.0,0.0,0.0,0.0,0.0,0.0,0.0,0.021118483949131385,0.00942477796076938,-0.08429940287132612,0.0,0.0,0.0,0.0,0.0,0.0,0.0,0.0,0.0,0.128467115,0.336368095,9.805669335,0.0,0.0,0.0,0.0,0.0,0.0,0.0,0.0,0.0
1704780513342842024,8897,1704780513342385709,imu_link,-0.00032495276712839053,0.004220591550072684,-0.9850396765183673,-0.1722756996713606,0.0,0.0,0.0,0.0,0.0,0.0,0.0,0.0,0.0,-0.010297442586766544,0.015009831567151233,-0.023561944901923447,0.0,0.0,0.0,0.0,0.0,0.0,0.0,0.0,0.0,-0.011767979999999999,0.35303939999999995,9.756636085,0.0,0.0,0.0,0.0,0.0,0.0,0.0,0.0,0.0
1704780513441499403,8898,1704780513441193746,imu_link,5.659573472876383e-05,0.00486314055230762,-0.9849164395285174,-0.17296229013099848,0.0,0.0,0.0,0.0,0.0,0.0,0.0,0.0,0.0,-0.01291543646475804,-0.0024434609527920616,-0.004363323129985824,0.0,0.0,0.0,0.0,0.0,0.0,0.0,0.0,0.0,0.004903325,-0.179461695,9.80272734,0.0,0.0,0.0,0.0,0.0,0.0,0.0,0.0,0.0
1704780513541956005,8899,1704780513541555474,imu_link,0.00015692826740303382,0.0059094977879234414,-0.9847593430918181,-0.17382200494409267,0.0,0.0,0.0,0.0,0.0,0.0,0.0,0.0,0.0,-0.024783675378319478,-0.008028514559173916,-0.038397243543875255,0.0,0.0,0.0,0.0,0.0,0.0,0.0,0.0,0.0,-0.07747253500000001,-0.4707192,9.804688669999999,0.0,0.0,0.0,0.0,0.0,0.0,0.0,0.0,0.0
1704780513642077468,8900,1704780513641694138,imu_link,5.496884770635484e-05,0.007173108900124837,-0.9840293766441698,-0.17786154555839073,0.0,0.0,0.0,0.0,0.0,0.0,0.0,0.0,0.0,-0.024609142453120045,0.006806784082777885,-0.11728612573401893,0.0,0.0,0.0,0.0,0.0,0.0,0.0,0.0,0.0,0.034323275,-0.55701772,9.774288055,0.0,0.0,0.0,0.0,0.0,0.0,0.0,0.0,0.0
1704780513742604404,8901,1704780513742087732,imu_link,0.0005931486258769945,0.007435420091655483,-0.9828908674640727,-0.18403778242113966,0.0,0.0,0.0,0.0,0.0,0.0,0.0,0.0,0.0,0.0054105206811824215,0.004014257279586958,-0.12164944886400476,0.0,0.0,0.0,0.0,0.0,0.0,0.0,0.0,0.0,0.00980665,-0.48346784499999995,9.867451229999999,0.0,0.0,0.0,0.0,0.0,0.0,0.0,0.0,0.0
1704780513842738848,8902,1704780513842096823,imu_link,0.000622920419690984,0.006901195022583139,-0.9818019874918664,-0.18978103918577324,0.0,0.0,0.0,0.0,0.0,0.0,0.0,0.0,0.0,0.004886921905584123,0.008028514559173916,-0.12042771838760874,0.0,0.0,0.0,0.0,0.0,0.0,0.0,0.0,0.0,-0.1176798,-0.24124358999999998,9.967479059999999,0.0,0.0,0.0,0.0,0.0,0.0,0.0,0.0,0.0
1704780513942688162,8903,1704780513942214203,imu_link,0.0007084867821831301,0.007067490567289001,-0.9803660368172759,-0.1970583225310427,0.0,0.0,0.0,0.0,0.0,0.0,0.0,0.0,0.0,-0.010122909661567111,-0.002617993877991494,-0.17575465567582899,0.0,0.0,0.0,0.0,0.0,0.0,0.0,0.0,0.0,-0.095124505,-0.41580195999999997,9.7870367,0.0,0.0,0.0,0.0,0.0,0.0,0.0,0.0,0.0
1704780514041875252,8904,1704780514041414513,imu_link,0.0005826153597145152,0.007011420900759549,-0.9785734110290579,-0.20577798658566346,0.0,0.0,0.0,0.0,0.0,0.0,0.0,0.0,0.0,-0.00034906585039886593,0.004363323129985824,-0.16894787159305108,0.0,0.0,0.0,0.0,0.0,0.0,0.0,0.0,0.0,0.05099458,-0.35303939999999995,9.991995685,0.0,0.0,0.0,0.0,0.0,0.0,0.0,0.0,0.0
1704780514141856215,8905,1704780514141451800,imu_link,0.0009917146873389807,0.0065721368011129894,-0.9768557871188762,-0.2137956844564623,0.0,0.0,0.0,0.0,0.0,0.0,0.0,0.0,0.0,0.0008726646259971648,0.012217304763960306,-0.17016960206944712,0.0,0.0,0.0,0.0,0.0,0.0,0.0,0.0,0.0,-0.04903325,-0.25987622499999996,9.691912194999999,0.0,0.0,0.0,0.0,0.0,0.0,0.0,0.0,0.0
1704780514242203123,8906,1704780514241820461,imu_link,0.0010986470697224187,0.006373096158451852,-0.9748376142855126,-0.22282235613623116,0.0,0.0,0.0,0.0,0.0,0.0,0.0,0.0,0.0,0.008203047484373348,0.006632251157578452,-0.19408061282176942,0.0,0.0,0.0,0.0,0.0,0.0,0.0,0.0,0.0,-0.00392266,-0.40403397999999996,9.97532438,0.0,0.0,0.0,0.0,0.0,0.0,0.0,0.0,0.0
1704780514342242128,8907,1704780514341828539,imu_link,0.0012272005336360673,0.005897549465856923,-0.9726972918353525,-0.23199933479499288,0.0,0.0,0.0,0.0,0.0,0.0,0.0,0.0,0.0,0.009948376736367677,-0.00715584993317675,-0.18081611050661253,0.0,0.0,0.0,0.0,0.0,0.0,0.0,0.0,0.0,0.01765197,-0.328522775,9.842934605,0.0,0.0,0.0,0.0,0.0,0.0,0.0,0.0,0.0
1704780514441547747,8908,1704780514441108459,imu_link,0.0009665199719712226,0.005694618788633304,-0.970426510355615,-0.24132763031824428,0.0,0.0,0.0,0.0,0.0,0.0,0.0,0.0,0.0,-0.0013962634015954637,0.004537856055185257,-0.20943951023931953,0.0,0.0,0.0,0.0,0.0,0.0,0.0,0.0,0.0,-0.02745862,-0.34617474499999995,9.549715769999999,0.0,0.0,0.0,0.0,0.0,0.0,0.0,0.0,0.0
1704780514541903916,8909,1704780514541408435,imu_link,0.0007614549523230837,0.006024420563147511,-0.9675359508206947,-0.2526604646808207,0.0,0.0,0.0,0.0,0.0,0.0,0.0,0.0,0.0,-0.01064650843716541,-0.018500490071139894,-0.2488839513343914,0.0,0.0,0.0,0.0,0.0,0.0,0.0,0.0,0.0,-0.04118793,-0.42364728,10.036125610000001,0.0,0.0,0.0,0.0,0.0,0.0,0.0,0.0,0.0
1704780514641997653,8910,1704780514641541591,imu_link,0.0002711564155664162,0.00626027539514865,-0.9642824688611813,-0.2648019178049138,0.0,0.0,0.0,0.0,0.0,0.0,0.0,0.0,0.0,-0.0010471975511965976,0.0027925268031909274,-0.25080381351158515,0.0,0.0,0.0,0.0,0.0,0.0,0.0,0.0,0.0,-0.030400614999999995,-0.49229383,9.725254805,0.0,0.0,0.0,0.0,0.0,0.0,0.0,0.0,0.0
1704780514742121537,8911,1704780514741666853,imu_link,-8.978287958340118e-05,0.006293389387481524,-0.9607086534874673,-0.277487420081253,0.0,0.0,0.0,0.0,0.0,0.0,0.0,0.0,0.0,-0.018500490071139894,-0.013264502315156903,-0.2832669375986797,0.0,0.0,0.0,0.0,0.0,0.0,0.0,0.0,0.0,-0.014709975,-0.34127141999999994,9.927271795,0.0,0.0,0.0,0.0,0.0,0.0,0.0,0.0,0.0
1704780514841260517,8912,1704780514840784297,imu_link,-8.222938781238514e-06,0.00684575508754598,-0.9563805027428518,-0.2920436089747463,0.0,0.0,0.0,0.0,0.0,0.0,0.0,0.0,0.0,-0.02129301687433082,0.004886921905584123,-0.3077015471266003,0.0,0.0,0.0,0.0,0.0,0.0,0.0,0.0,0.0,0.12160245999999998,-0.39618865999999997,9.742906775,0.0,0.0,0.0,0.0,0.0,0.0,0.0,0.0,0.0
1704780514941291334,8913,1704780514940973205,imu_link,-0.00013207564530655662,0.007284287979023903,-0.9519389391615981,-0.3062012047862543,0.0,0.0,0.0,0.0,0.0,0.0,0.0,0.0,0.0,-0.009773843811168246,-0.0036651914291880917,-0.2932153143350474,0.0,0.0,0.0,0.0,0.0,0.0,0.0,0.0,0.0,0.03138128,-0.52563644,9.835089284999999,0.0,0.0,0.0,0.0,0.0,0.0,0.0,0.0,0.0
1704780515041606082,8914,1704780515041162680,imu_link,-7.928154074643206e-05,0.00712011876083171,-0.9472651292953748,-0.3203717722338937,0.0,0.0,0.0,0.0,0.0,0.0,0.0,0.0,0.0,-0.005061454830783556,0.006632251157578452,-0.30246555937061725,0.0,0.0,0.0,0.0,0.0,0.0,0.0,0.0,0.0,0.07943386499999999,-0.050013915,9.738984115,0.0,0.0,0.0,0.0,0.0,0.0,0.0,0.0,0.0
1704780515141782746,8915,1704780515141357436,imu_link,0.0001741526461805083,0.007807689701374288,-0.9425484268478158,-0.33397825183549035,0.0,0.0,0.0,0.0,0.0,0.0,0.0,0.0,0.0,-0.017453292519943295,0.002617993877991494,-0.2694788365079245,0.0,0.0,0.0,0.0,0.0,0.0,0.0,0.0,0.0,0.09120184499999999,-0.33734875999999997,9.80861133,0.0,0.0,0.0,0.0,0.0,0.0,0.0,0.0,0.0
1704780515241917830,8916,1704780515241432523,imu_link,0.0006385989464137353,0.008041884706014208,-0.9382757274459286,-0.34579412887956096,0.0,0.0,0.0,0.0,0.0,0.0,0.0,0.0,0.0,0.00034906585039886593,0.014137166941154071,-0.24329889772800953,0.0,0.0,0.0,0.0,0.0,0.0,0.0,0.0,0.0,0.030400614999999995,-0.44620257499999993,9.56736774,0.0,0.0,0.0,0.0,0.0,0.0,0.0,0.0,0.0
1704780515342403319,8917,1704780515341729238,imu_link,0.0008820786128215449,0.008165167514141211,-0.9339177906749694,-0.3573934977550248,0.0,0.0,0.0,0.0,0.0,0.0,0.0,0.0,0.0,-0.005061454830783556,-0.006981317007977318,-0.24626595745639987,0.0,0.0,0.0,0.0,0.0,0.0,0.0,0.0,0.0,-0.08139519499999999,-0.11081514499999999,10.2577559,0.0,0.0,0.0,0.0,0.0,0.0,0.0,0.0,0.0
1704780515441233608,8918,1704780515440806183,imu_link,0.0005886322530407203,0.008590398246720931,-0.9296055902609225,-0.36845529596638343,0.0,0.0,0.0,0.0,0.0,0.0,0.0,0.0,0.0,0.00471238898038469,0.0041887902047863905,-0.22584560520806624,0.0,0.0,0.0,0.0,0.0,0.0,0.0,0.0,0.0,-0.03138128,-0.328522775,9.656608255,0.0,0.0,0.0,0.0,0.0,0.0,0.0,0.0,0.0
1704780515541466804,8919,1704780515541070899,imu_link,0.0008480399738329636,0.00785366419151962,-0.9258684049092969,-0.37776354717956,0.0,0.0,0.0,0.0,0.0,0.0,0.0,0.0,0.0,0.014486232791552934,0.008552113334772213,-0.18535396656179778,0.0,0.0,0.0,0.0,0.0,0.0,0.0,0.0,0.0,0.06864655,-0.28635417999999996,9.873335219999998,0.0,0.0,0.0,0.0,0.0,0.0,0.0,0.0,0.0
1704780515641562974,8920,1704780515641172851,imu_link,0.00023971717508217269,0.006900294967128807,-0.9224089707819288,-0.3861528442029981,0.0,0.0,0.0,0.0,0.0,0.0,0.0,0.0,0.0,0.023038346126325153,-0.0038397243543875246,-0.17767451785302274,0.0,0.0,0.0,0.0,0.0,0.0,0.0,0.0,0.0,0.32950344,-0.13140911,9.929233125,0.0,0.0,0.0,0.0,0.0,0.0,0.0,0.0,0.0
1704780515742971530,8921,1704780515742533522,imu_link,8.089196811710345e-05,0.005946976558207664,-0.9190798259990308,-0.3940265224168254,0.0,0.0,0.0,0.0,0.0,0.0,0.0,0.0,0.0,0.022863813201125717,0.0041887902047863905,-0.16650441064025903,0.0,0.0,0.0,0.0,0.0,0.0,0.0,0.0,0.0,0.48052585,-0.33734875999999997,9.603652344999999,0.0,0.0,0.0,0.0,0.0,0.0,0.0,0.0,0.0
1704780515841271618,8922,1704780515840891072,imu_link,-0.00022871973245483252,0.005341871465427895,-0.9156799923761467,-0.4018725714185415,0.0,0.0,0.0,0.0,0.0,0.0,0.0,0.0,0.0,0.011519173063162576,0.0013962634015954637,-0.18011797880581482,0.0,0.0,0.0,0.0,0.0,0.0,0.0,0.0,0.0,0.67273619,-0.21574629999999997,9.81841798,0.0,0.0,0.0,0.0,0.0,0.0,0.0,0.0,0.0
1704780515941408192,8923,1704780515941072303,imu_link,-3.284879222443691e-05,0.004607658516302189,-0.9119997748238995,-0.4101648194629941,0.0,0.0,0.0,0.0,0.0,0.0,0.0,0.0,0.0,0.01064650843716541,0.011868238913561443,-0.1764527873766267,0.0,0.0,0.0,0.0,0.0,0.0,0.0,0.0,0.0,0.597224985,-0.34323275000000003,9.67720222,0.0,0.0,0.0,0.0,0.0,0.0,0.0,0.0,0.0
1704780516041664411,8924,1704780516041245600,imu_link,8.85200577596132e-05,0.003321819311443945,-0.9083190874875017,-0.4182647403099305,0.0,0.0,0.0,0.0,0.0,0.0,0.0,0.0,0.0,0.033859387488689996,0.01815142422074103,-0.18133970928221083,0.0,0.0,0.0,0.0,0.0,0.0,0.0,0.0,0.0,0.36284605,-0.40207265,10.27344654,0.0,0.0,0.0,0.0,0.0,0.0,0.0,0.0,0.0
1704780516142111930,8925,1704780516141466968,imu_link,0.00011058497057762256,0.0020713481248326423,-0.9040426308923984,-0.4274372688676789,0.0,0.0,0.0,0.0,0.0,0.0,0.0,0.0,0.0,0.020071286397934786,0.005934119456780722,-0.22322761133007474,0.0,0.0,0.0,0.0,0.0,0.0,0.0,0.0,0.0,0.507003805,-0.29027684,9.305530184999999,0.0,0.0,0.0,0.0,0.0,0.0,0.0,0.0,0.0
1704780516241096585,8926,1704780516240555359,imu_link,0.001033972269144039,0.0019230590912059041,-0.8989831396967803,-0.4379777931425261,0.0,0.0,0.0,0.0,0.0,0.0,0.0,0.0,0.0,-0.017278759594743863,0.011344640137963142,-0.23230332344044527,0.0,0.0,0.0,0.0,0.0,0.0,0.0,0.0,0.0,0.28635417999999996,-0.023535959999999998,10.145960089999999,0.0,0.0,0.0,0.0,0.0,0.0,0.0,0.0,0.0
1704780516341387289,8927,1704780516340920239,imu_link,0.0026565053046828987,0.002377616988952636,-0.8939158833846071,-0.4482205744382308,0.0,0.0,0.0,0.0,0.0,0.0,0.0,0.0,0.0,-0.018500490071139894,0.038571776469074684,-0.22636920398366453,0.0,0.0,0.0,0.0,0.0,0.0,0.0,0.0,0.0,0.05295591,-0.587418335,9.914523149999999,0.0,0.0,0.0,0.0,0.0,0.0,0.0,0.0,0.0
1704780516441162475,8928,1704780516440829514,imu_link,0.003658682967707259,0.002335469702475684,-0.8888126923292129,-0.45825010373671105,0.0,0.0,0.0,0.0,0.0,0.0,0.0,0.0,0.0,-0.012217304763960306,0.014137166941154071,-0.2234021442552742,0.0,0.0,0.0,0.0,0.0,0.0,0.0,0.0,0.0,0.047071919999999996,-0.16867437999999998,9.625226975,0.0,0.0,0.0,0.0,0.0,0.0,0.0,0.0,0.0
1704780516541410895,8929,1704780516541017554,imu_link,0.004845476618694267,0.0018775547184601044,-0.8837191333590015,-0.46798877067706657,0.0,0.0,0.0,0.0,0.0,0.0,0.0,0.0,0.0,0.0041887902047863905,0.01937315469713706,-0.21362830044410594,0.0,0.0,0.0,0.0,0.0,0.0,0.0,0.0,0.0,-0.228494945,-0.47856452,10.397990994999999,0.0,0.0,0.0,0.0,0.0,0.0,0.0,0.0,0.0
1704780516640699525,8930,1704780516640278223,imu_link,0.00500539029110623,0.0013520631270770996,-0.8786450859887129,-0.47744730689492954,0.0,0.0,0.0,0.0,0.0,0.0,0.0,0.0,0.0,0.009599310885968814,0.018500490071139894,-0.21781709064889232,0.0,0.0,0.0,0.0,0.0,0.0,0.0,0.0,0.0,-0.106892485,-0.07943386499999999,9.781152709999999,0.0,0.0,0.0,0.0,0.0,0.0,0.0,0.0,0.0
1704780516740851113,8931,1704780516740440887,imu_link,0.005729820637730167,0.0006097212917421596,-0.8741046455152516,-0.4857034754704375,0.0,0.0,0.0,0.0,0.0,0.0,0.0,0.0,0.0,-0.005061454830783556,0.01780235837034216,-0.15428710587629874,0.0,0.0,0.0,0.0,0.0,0.0,0.0,0.0,0.0,-0.17553903499999998,0.06276256,9.795862685,0.0,0.0,0.0,0.0,0.0,0.0,0.0,0.0,0.0
1704780516841183083,8932,1704780516840666088,imu_link,0.005780378068448,-5.5848792135106476e-05,-0.87086327297302,-0.4914913467163156,0.0,0.0,0.0,0.0,0.0,0.0,0.0,0.0,0.0,0.02897246558310587,0.005585053606381855,-0.12897983172238095,0.0,0.0,0.0,0.0,0.0,0.0,0.0,0.0,0.0,-0.26477955,-0.355981395,10.002782999999999,0.0,0.0,0.0,0.0,0.0,0.0,0.0,0.0,0.0
1704780516941345376,8933,1704780516940826595,imu_link,0.0054319323638578,-0.0014029579345909127,-0.8676256050605844,-0.49718641902518135,0.0,0.0,0.0,0.0,0.0,0.0,0.0,0.0,0.0,0.01780235837034216,0.00034906585039886593,-0.12199851471440365,0.0,0.0,0.0,0.0,0.0,0.0,0.0,0.0,0.0,-0.181423025,0.42953126999999997,9.576193725,0.0,0.0,0.0,0.0,0.0,0.0,0.0,0.0,0.0
1704780517041460920,8934,1704780517041047696,imu_link,0.005199300310004222,-0.00129503529268056,-0.865492693620174,-0.5008928901970687,0.0,0.0,0.0,0.0,0.0,0.0,0.0,0.0,0.0,-0.0031415926535897933,0.007330382858376183,-0.05916666164260777,0.0,0.0,0.0,0.0,0.0,0.0,0.0,0.0,0.0,-0.0029419949999999998,-0.16082906,10.168515385,0.0,0.0,0.0,0.0,0.0,0.0,0.0,0.0,0.0
1704780517141542687,8935,1704780517141103526,imu_link,0.0047376533282868505,-0.0029627012529154432,-0.8639973750190973,-0.5034653046659086,0.0,0.0,0.0,0.0,0.0,0.0,0.0,0.0,0.0,0.032637657012293965,0.00034906585039886593,-0.06440264939859076,0.0,0.0,0.0,0.0,0.0,0.0,0.0,0.0,0.0,0.09218251,-0.0196133,9.748790764999999,0.0,0.0,0.0,0.0,0.0,0.0,0.0,0.0,0.0
1704780517240820502,8936,1704780517240365854,imu_link,0.003976721726732774,-0.0037436600075007598,-0.8629828646135197,-0.5052036679177022,0.0,0.0,0.0,0.0,0.0,0.0,0.0,0.0,0.0,-0.005934119456780722,0.0015707963267948967,-0.00645771823237902,0.0,0.0,0.0,0.0,0.0,0.0,0.0,0.0,0.0,0.416782625,0.77472535,9.484991879999999,0.0,0.0,0.0,0.0,0.0,0.0,0.0,0.0,0.0
1704780517340848271,8937,1704780517340376564,imu_link,0.0044270546394874506,-0.0034943521352712613,-0.8635556225897766,-0.5042220516637058,0.0,0.0,0.0,0.0,0.0,0.0,0.0,0.0,0.0,-0.0041887902047863905,-0.009948376736367677,0.030019663134302467,0.0,0.0,0.0,0.0,0.0,0.0,0.0,0.0,0.0,0.22555294999999997,-0.29321883499999996,10.264620554999999,0.0,0.0,0.0,0.0,0.0,0.0,0.0,0.0,0.0
1704780517441023858,8938,1704780517440612677,imu_link,0.004171597779476376,-0.003240439758791712,-0.8638656304074481,-0.5036946197080907,0.0,0.0,0.0,0.0,0.0,0.0,0.0,0.0,0.0,-0.007330382858376183,0.02129301687433082,0.0019198621771937623,0.0,0.0,0.0,0.0,0.0,0.0,0.0,0.0,0.0,0.56682437,0.29027684,9.088803219999999,0.0,0.0,0.0,0.0,0.0,0.0,0.0,0.0,0.0
1704780517541146420,8939,1704780517540789664,imu_link,0.005963653827752504,-0.0027648097105032283,-0.8642142799200097,-0.5030809766256588,0.0,0.0,0.0,0.0,0.0,0.0,0.0,0.0,0.0,-0.032114058236695664,-0.008726646259971648,0.023212879051524585,0.0,0.0,0.0,0.0,0.0,0.0,0.0,0.0,0.0,0.15298373999999998,-0.08531785499999998,10.32444112,0.0,0.0,0.0,0.0,0.0,0.0,0.0,0.0,0.0
1704780517640279713,8940,1704780517639891899,imu_link,0.005567325482117167,-0.0010135632367696198,-0.8647047374469389,-0.5022486382394297,0.0,0.0,0.0,0.0,0.0,0.0,0.0,0.0,0.0,-0.019896753472735354,-0.0036651914291880917,0.01064650843716541,0.0,0.0,0.0,0.0,0.0,0.0,0.0,0.0,0.0,0.36873004,-0.16573238499999998,9.740945445,0.0,0.0,0.0,0.0,0.0,0.0,0.0,0.0,0.0
1704780517740057785,8941,1704780517739702562,imu_link,0.0060445551079646,-0.0008865214061854671,-0.8647476001161484,-0.5021695585424358,0.0,0.0,0.0,0.0,0.0,0.0,0.0,0.0,0.0,0.0038397243543875246,0.0,0.002617993877991494,0.0,0.0,0.0,0.0,0.0,0.0,0.0,0.0,0.0,0.04118793,-0.28537351499999997,9.894909849999998,0.0,0.0,0.0,0.0,0.0,0.0,0.0,0.0,0.0
1704780517840634414,8942,1704780517840036773,imu_link,0.005149909803792677,-0.0020786055162235998,-0.8650526910404672,-0.5016502761404268,0.0,0.0,0.0,0.0,0.0,0.0,0.0,0.0,0.0,0.030019663134302467,0.010995574287564275,0.011693705988362009,0.0,0.0,0.0,0.0,0.0,0.0,0.0,0.0,0.0,0.014709975,-0.10591182,9.98513103,0.0,0.0,0.0,0.0,0.0,0.0,0.0,0.0,0.0
1704780517940938056,8943,1704780517940531693,imu_link,0.005249418727636943,-0.0036468949983602846,-0.8652195672654786,-0.5013524151540821,0.0,0.0,0.0,0.0,0.0,0.0,0.0,0.0,0.0,0.026878070480712675,-0.010297442586766544,0.00645771823237902,0.0,0.0,0.0,0.0,0.0,0.0,0.0,0.0,0.0,-0.22359162,0.17848102999999998,9.803708004999999,0.0,0.0,0.0,0.0,0.0,0.0,0.0,0.0,0.0
1704780518041100404,8944,1704780518040653573,imu_link,0.005280843601939873,-0.0037666111114382185,-0.865174982766668,-0.5014281349568277,0.0,0.0,0.0,0.0,0.0,0.0,0.0,0.0,0.0,0.009948376736367677,0.04834562028024293,-0.010122909661567111,0.0,0.0,0.0,0.0,0.0,0.0,0.0,0.0,0.0,-0.197113665,-0.163771055,10.158708735,0.0,0.0,0.0,0.0,0.0,0.0,0.0,0.0,0.0
1704780518141247081,8945,1704780518140831389,imu_link,0.005814264117685648,-0.004585235578282998,-0.8648611456033091,-0.501956540721598,0.0,0.0,0.0,0.0,0.0,0.0,0.0,0.0,0.0,0.0038397243543875246,-0.03682644721708035,-0.008203047484373348,0.0,0.0,0.0,0.0,0.0,0.0,0.0,0.0,0.0,-0.44326057999999996,0.11964113,9.476165895,0.0,0.0,0.0,0.0,0.0,0.0,0.0,0.0,0.0
1704780518240346537,8946,1704780518239953051,imu_link,0.005503943337786994,-0.0039026870871541556,-0.8647355293040615,-0.502182178099202,0.0,0.0,0.0,0.0,0.0,0.0,0.0,0.0,0.0,-0.014660765716752367,0.03612831551628262,-0.00890117918517108,0.0,0.0,0.0,0.0,0.0,0.0,0.0,0.0,0.0,-0.07256921,0.020593965,9.9439431,0.0,0.0,0.0,0.0,0.0,0.0,0.0,0.0,0.0
1704780518340556894,8947,1704780518340135629,imu_link,0.006757407245349011,-0.003829584145331028,-0.8643807566000118,-0.5027778628302814,0.0,0.0,0.0,0.0,0.0,0.0,0.0,0.0,0.0,-0.01972222054753592,-0.01308996938995747,-0.007679448708775049,0.0,0.0,0.0,0.0,0.0,0.0,0.0,0.0,0.0,-0.16082906,0.07354987499999999,9.580116385,0.0,0.0,0.0,0.0,0.0,0.0,0.0,0.0,0.0
1704780518440352044,8948,1704780518440004935,imu_link,0.007151185757223574,-0.0031531962555080835,-0.8642079550080815,-0.5030740784381458,0.0,0.0,0.0,0.0,0.0,0.0,0.0,0.0,0.0,0.0006981317007977319,0.01308996938995747,-0.017104226669544427,0.0,0.0,0.0,0.0,0.0,0.0,0.0,0.0,0.0,-0.30498681499999997,-0.44227991499999997,10.05966157,0.0,0.0,0.0,0.0,0.0,0.0,0.0,0.0,0.0
1704780518541103745,8949,1704780518540610528,imu_link,0.006347266788736469,-0.002802887261773042,-0.8631572637115982,-0.5048875064103062,0.0,0.0,0.0,0.0,0.0,0.0,0.0,0.0,0.0,0.013439035240356337,-0.021467549799530253,-0.06021385919380437,0.0,0.0,0.0,0.0,0.0,0.0,0.0,0.0,0.0,-0.195152335,-0.30400615,9.699757515,0.0,0.0,0.0,0.0,0.0,0.0,0.0,0.0,0.0
1704780518640224894,8950,1704780518639736105,imu_link,0.006349893554398238,-0.004350373740899931,-0.8614686572924208,-0.5077524058071572,0.0,0.0,0.0,0.0,0.0,0.0,0.0,0.0,0.0,0.02949606435870417,0.02565634000431664,-0.06283185307179587,0.0,0.0,0.0,0.0,0.0,0.0,0.0,0.0,0.0,-1.352337035,-0.32754211,9.878238545,0.0,0.0,0.0,0.0,0.0,0.0,0.0,0.0,0.0
1704780518740191523,8951,1704780518739757944,imu_link,0.005710657840677116,-0.005422819870787739,-0.8596850243911224,-0.5107637812622497,0.0,0.0,0.0,0.0,0.0,0.0,0.0,0.0,0.0,0.017104226669544427,-0.02949606435870417,-0.08098327729253689,0.0,0.0,0.0,0.0,0.0,0.0,0.0,0.0,0.0,-1.44353888,0.13533177,9.991995685,0.0,0.0,0.0,0.0,0.0,0.0,0.0,0.0,0.0
1704780518840585933,8952,1704780518840249361,imu_link,0.004698324591689092,-0.005059387242463073,-0.8573649221397232,-0.5146627231800535,0.0,0.0,0.0,0.0,0.0,0.0,0.0,0.0,0.0,0.0036651914291880917,-0.003490658503988659,-0.09302604913129776,0.0,0.0,0.0,0.0,0.0,0.0,0.0,0.0,0.0,-0.520733115,-0.033342609999999995,9.89294852,0.0,0.0,0.0,0.0,0.0,0.0,0.0,0.0,0.0
1704780518940716246,8953,1704780518940256753,imu_link,0.004853451390354856,-0.005291442894837487,-0.8549731702087802,-0.5186225244480231,0.0,0.0,0.0,0.0,0.0,0.0,0.0,0.0,0.0,0.009075712110370514,0.003316125578789226,-0.09267698328089889,0.0,0.0,0.0,0.0,0.0,0.0,0.0,0.0,0.0,-0.33440676499999994,-0.09904716499999999,9.853721919999998,0.0,0.0,0.0,0.0,0.0,0.0,0.0,0.0,0.0
1704780519041109334,8954,1704780519040650517,imu_link,0.004210099105785816,-0.004319846458604203,-0.8526201244427107,-0.5224964472485816,0.0,0.0,0.0,0.0,0.0,0.0,0.0,0.0,0.0,-0.02722713633111154,-0.03577924966588375,-0.09093165402890457,0.0,0.0,0.0,0.0,0.0,0.0,0.0,0.0,0.0,0.53740442,0.24712757999999999,9.84391527,0.0,0.0,0.0,0.0,0.0,0.0,0.0,0.0,0.0
1704780519140923169,8955,1704780519140531123,imu_link,0.004764715335353521,-0.0027483279762167984,-0.8499263654656494,-0.5268727716132799,0.0,0.0,0.0,0.0,0.0,0.0,0.0,0.0,0.0,-0.026354471705114374,0.012391837689159739,-0.11222467090323537,0.0,0.0,0.0,0.0,0.0,0.0,0.0,0.0,0.0,0.575650355,-0.5825150099999999,9.973363049999998,0.0,0.0,0.0,0.0,0.0,0.0,0.0,0.0,0.0
1704780519240265911,8956,1704780519239776089,imu_link,0.0057287335294732965,-0.0023650204436226597,-0.8465521171067995,-0.5322697636654226,0.0,0.0,0.0,0.0,0.0,0.0,0.0,0.0,0.0,-0.004886921905584123,0.020420352248333655,-0.14189526818713902,0.0,0.0,0.0,0.0,0.0,0.0,0.0,0.0,0.0,0.54132708,-0.328522775,10.09888817,0.0,0.0,0.0,0.0,0.0,0.0,0.0,0.0,0.0
1704780519340255161,8957,1704780519339816697,imu_link,0.005965780689246579,-0.0029804222334862797,-0.8428589958822604,-0.5380931514193669,0.0,0.0,0.0,0.0,0.0,0.0,0.0,0.0,0.0,0.007504915783575617,-0.010471975511965976,-0.13281955607676849,0.0,0.0,0.0,0.0,0.0,0.0,0.0,0.0,0.0,0.40011132,-0.279489525,9.803708004999999,0.0,0.0,0.0,0.0,0.0,0.0,0.0,0.0,0.0
1704780519440558602,8958,1704780519440136045,imu_link,0.0055789545929287605,-0.0027841574586413976,-0.8391316335364889,-0.543892659751241,0.0,0.0,0.0,0.0,0.0,0.0,0.0,0.0,0.0,-0.0008726646259971648,-0.004014257279586958,-0.14137166941154067,0.0,0.0,0.0,0.0,0.0,0.0,0.0,0.0,0.0,0.31479346499999994,-0.05687856999999999,9.951788419999998,0.0,0.0,0.0,0.0,0.0,0.0,0.0,0.0,0.0
1704780519540147672,8959,1704780519539769743,imu_link,0.00539079454464106,-0.0029203832860023793,-0.8353619831882816,-0.5496660511068346,0.0,0.0,0.0,0.0,0.0,0.0,0.0,0.0,0.0,0.011693705988362009,0.0024434609527920616,-0.130201562198777,0.0,0.0,0.0,0.0,0.0,0.0,0.0,0.0,0.0,0.15886772999999998,-0.17848102999999998,9.764481405,0.0,0.0,0.0,0.0,0.0,0.0,0.0,0.0,0.0
1704780519639890999,8960,1704780519639566983,imu_link,0.003666690787623561,-0.0047345411576182285,-0.8334311211067696,-0.5525909028109379,0.0,0.0,0.0,0.0,0.0,0.0,0.0,0.0,0.0,0.044331363000655974,-0.024609142453120045,-0.00645771823237902,0.0,0.0,0.0,0.0,0.0,0.0,0.0,0.0,0.0,0.05099458,0.5501530649999999,9.86352857,0.0,0.0,0.0,0.0,0.0,0.0,0.0,0.0,0.0
1704780519739827931,8961,1704780519739455136,imu_link,0.002536263961105139,-0.005339838052448942,-0.8340071611939756,-0.5517219486044208,0.0,0.0,0.0,0.0,0.0,0.0,0.0,0.0,0.0,0.0041887902047863905,0.005759586531581288,0.013962634015954637,0.0,0.0,0.0,0.0,0.0,0.0,0.0,0.0,0.0,0.061781894999999996,0.189268345,9.491856535,0.0,0.0,0.0,0.0,0.0,0.0,0.0,0.0,0.0
1704780519840133833,8962,1704780519839667355,imu_link,0.00296804492132661,-0.005631296886426855,-0.8335221977669868,-0.5524492963471074,0.0,0.0,0.0,0.0,0.0,0.0,0.0,0.0,0.0,0.007504915783575617,0.0038397243543875246,-0.032812189937493394,0.0,0.0,0.0,0.0,0.0,0.0,0.0,0.0,0.0,-0.222610955,-0.14121576,9.9439431,0.0,0.0,0.0,0.0,0.0,0.0,0.0,0.0,0.0
1704780519939514732,8963,1704780519939303349,imu_link,0.0031096280859878173,-0.0060447865991531905,-0.8330842556729068,-0.5531043425232319,0.0,0.0,0.0,0.0,0.0,0.0,0.0,0.0,0.0,0.006632251157578452,0.010995574287564275,0.0027925268031909274,0.0,0.0,0.0,0.0,0.0,0.0,0.0,0.0,0.0,-0.26870221,0.21476563499999998,10.090062184999999,0.0,0.0,0.0,0.0,0.0,0.0,0.0,0.0,0.0
1704780520040861886,8964,1704780520040394525,imu_link,0.003787177806207376,-0.005970872824685282,-0.8330832771842721,-0.553102394894371,0.0,0.0,0.0,0.0,0.0,0.0,0.0,0.0,0.0,-0.016057029118347832,0.014137166941154071,-0.012042771838760872,0.0,0.0,0.0,0.0,0.0,0.0,0.0,0.0,0.0,-0.27654753,0.20201698999999998,9.695834855,0.0,0.0,0.0,0.0,0.0,0.0,0.0,0.0,0.0
1704780520140732876,8965,1704780520140248956,imu_link,0.005111116080298459,-0.005393254234178386,-0.8324566505692657,-0.5540403543282555,0.0,0.0,0.0,0.0,0.0,0.0,0.0,0.0,0.0,-0.0158824961931484,-0.003490658503988659,-0.019896753472735354,0.0,0.0,0.0,0.0,0.0,0.0,0.0,0.0,0.0,-0.29518016499999994,-0.15396440499999997,9.797824015,0.0,0.0,0.0,0.0,0.0,0.0,0.0,0.0,0.0
1704780520240141864,8966,1704780520239489153,imu_link,0.0048422867294356355,-0.004693704677380479,-0.832221055979216,-0.5544029539788458,0.0,0.0,0.0,0.0,0.0,0.0,0.0,0.0,0.0,0.0019198621771937623,-0.004537856055185257,-0.0013962634015954637,0.0,0.0,0.0,0.0,0.0,0.0,0.0,0.0,0.0,-0.16475172,-0.004903325,10.171457379999998,0.0,0.0,0.0,0.0,0.0,0.0,0.0,0.0,0.0
1704780520339745314,8967,1704780520339258909,imu_link,0.005036136974880087,-0.005347104700193166,-0.832215443299793,-0.5544037353130158,0.0,0.0,0.0,0.0,0.0,0.0,0.0,0.0,0.0,0.009948376736367677,0.01361356816555577,-0.00017453292519943296,0.0,0.0,0.0,0.0,0.0,0.0,0.0,0.0,0.0,-0.16082906,0.02157463,9.449687939999999,0.0,0.0,0.0,0.0,0.0,0.0,0.0,0.0,0.0
1704780520440399537,8968,1704780520440015254,imu_link,0.0042860676956344886,-0.0060008357373522985,-0.8322118375812897,-0.5544087634442071,0.0,0.0,0.0,0.0,0.0,0.0,0.0,0.0,0.0,0.03089232776029963,-0.006981317007977318,0.0,0.0,0.0,0.0,0.0,0.0,0.0,0.0,0.0,0.0,-0.14906107999999998,-0.06080122999999999,10.123404794999999,0.0,0.0,0.0,0.0,0.0,0.0,0.0,0.0,0.0
1704780520540271311,8969,1704780520539905803,imu_link,0.003752788733199812,-0.007429605052380842,-0.8321024018095862,-0.5545595643825898,0.0,0.0,0.0,0.0,0.0,0.0,0.0,0.0,0.0,0.027925268031909273,0.0031415926535897933,-0.003316125578789226,0.0,0.0,0.0,0.0,0.0,0.0,0.0,0.0,0.0,-0.142196425,0.28243152,9.780172044999999,0.0,0.0,0.0,0.0,0.0,0.0,0.0,0.0,0.0
1704780520639509298,8970,1704780520639101102,imu_link,0.003461662326970573,-0.006921720178860174,-0.8320600803949356,-0.5546315256969017,0.0,0.0,0.0,0.0,0.0,0.0,0.0,0.0,0.0,-0.024260076602721177,-0.015358897417550098,0.0010471975511965976,0.0,0.0,0.0,0.0,0.0,0.0,0.0,0.0,0.0,-0.24320491999999996,0.39814998999999995,10.11850147,0.0,0.0,0.0,0.0,0.0,0.0,0.0,0.0,0.0
1704780520739515704,8971,1704780520739106127,imu_link,0.0034867031370128605,-0.005468971782274668,-0.8321699733192319,-0.5544827037471485,0.0,0.0,0.0,0.0,0.0,0.0,0.0,0.0,0.0,-0.02076941809873252,-0.017976891295541593,0.004363323129985824,0.0,0.0,0.0,0.0,0.0,0.0,0.0,0.0,0.0,-0.144157755,-0.20005566,9.735061455,0.0,0.0,0.0,0.0,0.0,0.0,0.0,0.0,0.0
1704780520839794546,8972,1704780520839342718,imu_link,0.0027622214344730413,-0.004984151052782315,-0.8323687215696296,-0.5541929625352261,0.0,0.0,0.0,0.0,0.0,0.0,0.0,0.0,0.0,0.016231562043547268,-0.012391837689159739,0.005934119456780722,0.0,0.0,0.0,0.0,0.0,0.0,0.0,0.0,0.0,0.11277647499999999,-0.020593965,9.84979926,0.0,0.0,0.0,0.0,0.0,0.0,0.0,0.0,0.0
1704780520939543737,8973,1704780520939169238,imu_link,0.002931011663007426,-0.003943327099086918,-0.8323752825080348,-0.5541906246154746,0.0,0.0,0.0,0.0,0.0,0.0,0.0,0.0,0.0,-0.03316125578789226,-0.00471238898038469,0.0020943951023931952,0.0,0.0,0.0,0.0,0.0,0.0,0.0,0.0,0.0,0.236340265,0.40305331499999997,9.649743599999999,0.0,0.0,0.0,0.0,0.0,0.0,0.0,0.0,0.0
1704780521040574446,8974,1704780521040145229,imu_link,0.0033417247895143804,-0.001909142170273054,-0.8325291525094005,-0.5539678675461097,0.0,0.0,0.0,0.0,0.0,0.0,0.0,0.0,0.0,-0.0158824961931484,-0.023561944901923447,0.002967059728390361,0.0,0.0,0.0,0.0,0.0,0.0,0.0,0.0,0.0,0.257914895,-0.540346415,9.86352857,0.0,0.0,0.0,0.0,0.0,0.0,0.0,0.0,0.0
1704780521140270280,8975,1704780521139811005,imu_link,0.002276804362290921,-0.00193427599292667,-0.832530472338397,-0.5539711972352755,0.0,0.0,0.0,0.0,0.0,0.0,0.0,0.0,0.0,0.03700098014227979,-0.006806784082777885,0.0024434609527920616,0.0,0.0,0.0,0.0,0.0,0.0,0.0,0.0,0.0,0.55701772,-0.155925735,9.56540641,0.0,0.0,0.0,0.0,0.0,0.0,0.0,0.0,0.0
1704780521239200156,8976,1704780521238748769,imu_link,0.001842618984005281,-0.002587500272678943,-0.8327220070001123,-0.5536821910223625,0.0,0.0,0.0,0.0,0.0,0.0,0.0,0.0,0.0,-0.017976891295541593,0.005585053606381855,0.007330382858376183,0.0,0.0,0.0,0.0,0.0,0.0,0.0,0.0,0.0,0.44620257499999993,0.648219565,9.98513103,0.0,0.0,0.0,0.0,0.0,0.0,0.0,0.0,0.0
1704780521339956874,8977,1704780521339467922,imu_link,0.0032933033794205198,-0.001351360742475148,-0.832724145092794,-0.5536766440409694,0.0,0.0,0.0,0.0,0.0,0.0,0.0,0.0,0.0,-0.04345869837465881,0.005235987755982988,-0.0054105206811824215,0.0,0.0,0.0,0.0,0.0,0.0,0.0,0.0,0.0,0.38638200999999994,-0.322638785,9.88706453,0.0,0.0,0.0,0.0,0.0,0.0,0.0,0.0,0.0
1704780521440037880,8978,1704780521439497749,imu_link,0.0036310470161893334,-0.0005286692375511986,-0.8326287089308276,-0.5538194372451969,0.0,0.0,0.0,0.0,0.0,0.0,0.0,0.0,0.0,0.0015707963267948967,-0.003490658503988659,-0.00017453292519943296,0.0,0.0,0.0,0.0,0.0,0.0,0.0,0.0,0.0,0.34323275000000003,-0.263798885,9.838031280000001,0.0,0.0,0.0,0.0,0.0,0.0,0.0,0.0,0.0
1704780521539589191,8979,1704780521539195358,imu_link,0.004091006339005057,-0.000625001341166342,-0.8326279262625673,-0.5538173069236412,0.0,0.0,0.0,0.0,0.0,0.0,0.0,0.0,0.0,-0.01291543646475804,0.0036651914291880917,-0.00017453292519943296,0.0,0.0,0.0,0.0,0.0,0.0,0.0,0.0,0.0,-0.05491724,0.31479346499999994,9.6889702,0.0,0.0,0.0,0.0,0.0,0.0,0.0,0.0,0.0
1704780521639510843,8980,1704780521639137311,imu_link,0.003725722307764766,0.0015045114324290887,-0.8326288751049906,-0.5538167673337754,0.0,0.0,0.0,0.0,0.0,0.0,0.0,0.0,0.0,-0.01658062789394613,-0.03665191429188092,0.0020943951023931952,0.0,0.0,0.0,0.0,0.0,0.0,0.0,0.0,0.0,0.134351105,-0.371672035,9.821359975,0.0,0.0,0.0,0.0,0.0,0.0,0.0,0.0,0.0
1704780521739222832,8981,1704780521738817262,imu_link,0.003726616589564916,0.0005612318673360293,-0.8327260714153222,-0.5536723646099644,0.0,0.0,0.0,0.0,0.0,0.0,0.0,0.0,0.0,0.0466002910282486,0.026703537555513242,0.0031415926535897933,0.0,0.0,0.0,0.0,0.0,0.0,0.0,0.0,0.0,0.061781894999999996,-0.507003805,9.742906775,0.0,0.0,0.0,0.0,0.0,0.0,0.0,0.0,0.0
1704780521839687252,8982,1704780521839235887,imu_link,0.0020095628598374086,-0.0006028022051047021,-0.8326786001963588,-0.5537526045642099,0.0,0.0,0.0,0.0,0.0,0.0,0.0,0.0,0.0,0.02757620218151041,-0.026878070480712675,-0.0012217304763960308,0.0,0.0,0.0,0.0,0.0,0.0,0.0,0.0,0.0,0.1176798,0.4903325,9.5516771,0.0,0.0,0.0,0.0,0.0,0.0,0.0,0.0,0.0
1704780521939773359,8983,1704780521939277105,imu_link,0.003680399165898033,-0.0017152205989879404,-0.8325292566585117,-0.5539661988676767,0.0,0.0,0.0,0.0,0.0,0.0,0.0,0.0,0.0,0.0015707963267948967,0.055326937288220246,-0.009948376736367677,0.0,0.0,0.0,0.0,0.0,0.0,0.0,0.0,0.0,-0.167693715,-0.25301156999999996,10.201857995,0.0,0.0,0.0,0.0,0.0,0.0,0.0,0.0,0.0
1704780522039522422,8984,1704780522039305307,imu_link,0.003872649275640534,-0.0014276557020449917,-0.8320943589723175,-0.5546187358476384,0.0,0.0,0.0,0.0,0.0,0.0,0.0,0.0,0.0,-0.0017453292519943296,-0.0020943951023931952,-0.017278759594743863,0.0,0.0,0.0,0.0,0.0,0.0,0.0,0.0,0.0,-0.02941995,0.057859234999999995,9.454591265,0.0,0.0,0.0,0.0,0.0,0.0,0.0,0.0,0.0
1704780522139726648,8985,1704780522139483804,imu_link,0.0060976692254213994,-0.002182552222007545,-0.8316515144376423,-0.5552601313162971,0.0,0.0,0.0,0.0,0.0,0.0,0.0,0.0,0.0,-0.02234021442552742,0.04031710572106901,-0.014486232791552934,0.0,0.0,0.0,0.0,0.0,0.0,0.0,0.0,0.0,-0.35009740500000003,0.1372931,10.17734137,0.0,0.0,0.0,0.0,0.0,0.0,0.0,0.0,0.0
1704780522239041974,8986,1704780522238771690,imu_link,0.006073618034391548,-0.0011207771773401659,-0.8313644816895426,-0.5556932189684962,0.0,0.0,0.0,0.0,0.0,0.0,0.0,0.0,0.0,-0.003490658503988659,-0.026703537555513242,-0.005759586531581288,0.0,0.0,0.0,0.0,0.0,0.0,0.0,0.0,0.0,-0.197113665,-0.277528195,9.71446749,0.0,0.0,0.0,0.0,0.0,0.0,0.0,0.0,0.0
1704780522338709869,8987,1704780522338474199,imu_link,0.006266316702441084,-0.0014620461375111431,-0.8311690045624955,-0.5559826270223439,0.0,0.0,0.0,0.0,0.0,0.0,0.0,0.0,0.0,0.02129301687433082,0.01832595714594046,-0.006632251157578452,0.0,0.0,0.0,0.0,0.0,0.0,0.0,0.0,0.0,-0.21574629999999997,0.03138128,9.74388744,0.0,0.0,0.0,0.0,0.0,0.0,0.0,0.0,0.0
1704780522439957619,8988,1704780522439512619,imu_link,0.005829825311253962,-0.001801221512958363,-0.8310717717976983,-0.5561317099922788,0.0,0.0,0.0,0.0,0.0,0.0,0.0,0.0,0.0,0.016406094968746697,-0.02565634000431664,0.00034906585039886593,0.0,0.0,0.0,0.0,0.0,0.0,0.0,0.0,0.0,-0.114737805,-0.09414383999999999,10.00670566,0.0,0.0,0.0,0.0,0.0,0.0,0.0,0.0,0.0
1704780522539546768,8989,1704780522539262863,imu_link,0.005128183315344443,-0.0017511413229233835,-0.8311219572729913,-0.5560637799557379,0.0,0.0,0.0,0.0,0.0,0.0,0.0,0.0,0.0,0.022863813201125717,0.014835298641951801,0.002617993877991494,0.0,0.0,0.0,0.0,0.0,0.0,0.0,0.0,0.0,-0.036284605,-0.048052584999999995,9.73996478,0.0,0.0,0.0,0.0,0.0,0.0,0.0,0.0,0.0
1704780522638608891,8990,1704780522638194066,imu_link,0.0048615517338782025,-0.0019927309229103548,-0.8311216211557912,-0.5560658640714935,0.0,0.0,0.0,0.0,0.0,0.0,0.0,0.0,0.0,0.0041887902047863905,-0.024260076602721177,0.00034906585039886593,0.0,0.0,0.0,0.0,0.0,0.0,0.0,0.0,0.0,-0.196133,0.016671304999999997,9.867451229999999,0.0,0.0,0.0,0.0,0.0,0.0,0.0,0.0,0.0
1704780522739071553,8991,1704780522738693437,imu_link,0.00437837440940688,-0.0014594582686083021,-0.8311242669368204,-0.5560675792813553,0.0,0.0,0.0,0.0,0.0,0.0,0.0,0.0,0.0,0.0027925268031909274,0.003490658503988659,-0.0019198621771937623,0.0,0.0,0.0,0.0,0.0,0.0,0.0,0.0,0.0,-0.057859234999999995,-0.048052584999999995,9.76546207,0.0,0.0,0.0,0.0,0.0,0.0,0.0,0.0,0.0
1704780522839183871,8992,1704780522838873281,imu_link,0.004959538074731629,-0.0012188232645287502,-0.8310753881668997,-0.5561363291812289,0.0,0.0,0.0,0.0,0.0,0.0,0.0,0.0,0.0,-0.01832595714594046,0.007330382858376183,0.0017453292519943296,0.0,0.0,0.0,0.0,0.0,0.0,0.0,0.0,0.0,0.03138128,0.134351105,9.61443966,0.0,0.0,0.0,0.0,0.0,0.0,0.0,0.0,0.0
1704780522939511240,8993,1704780522939094736,imu_link,0.0058320145169991925,-0.0005426566687808092,-0.8310753079308159,-0.5561290548767551,0.0,0.0,0.0,0.0,0.0,0.0,0.0,0.0,0.0,-0.01780235837034216,-0.005934119456780722,-0.00645771823237902,0.0,0.0,0.0,0.0,0.0,0.0,0.0,0.0,0.0,-0.195152335,-0.10198916,10.04789359,0.0,0.0,0.0,0.0,0.0,0.0,0.0,0.0,0.0
1704780523039556639,8994,1704780523039157998,imu_link,0.0055191266189693776,0.0004003765391535482,-0.8309314880413178,-0.5563472307124679,0.0,0.0,0.0,0.0,0.0,0.0,0.0,0.0,0.0,-0.01308996938995747,-0.006981317007977318,-0.0031415926535897933,0.0,0.0,0.0,0.0,0.0,0.0,0.0,0.0,0.0,-0.09316317499999999,-0.106892485,9.700738179999998,0.0,0.0,0.0,0.0,0.0,0.0,0.0,0.0,0.0
1704780523139321671,8995,1704780523138921883,imu_link,0.005979464444764728,0.0006167589133901125,-0.8308822655185032,-0.5564157855958404,0.0,0.0,0.0,0.0,0.0,0.0,0.0,0.0,0.0,-0.0027925268031909274,0.0054105206811824215,-0.0005235987755982988,0.0,0.0,0.0,0.0,0.0,0.0,0.0,0.0,0.0,-0.163771055,-0.134351105,10.02828029,0.0,0.0,0.0,0.0,0.0,0.0,0.0,0.0,0.0
1704780523239267808,8996,1704780523238874055,imu_link,0.005930271542101687,0.000229090638609561,-0.8308335290476262,-0.5564893767244651,0.0,0.0,0.0,0.0,0.0,0.0,0.0,0.0,0.0,0.013439035240356337,-0.0005235987755982988,-0.0031415926535897933,0.0,0.0,0.0,0.0,0.0,0.0,0.0,0.0,0.0,-0.07256921,-0.21084297499999996,9.63601429,0.0,0.0,0.0,0.0,0.0,0.0,0.0,0.0,0.0
1704780523338943313,8997,1704780523338676956,imu_link,0.005007962865544507,-0.0008355896786479177,-0.8306392256533367,-0.5567878401185246,0.0,0.0,0.0,0.0,0.0,0.0,0.0,0.0,0.0,0.03682644721708035,-0.005585053606381855,-0.009599310885968814,0.0,0.0,0.0,0.0,0.0,0.0,0.0,0.0,0.0,-0.157887065,-0.234378935,9.9635564,0.0,0.0,0.0,0.0,0.0,0.0,0.0,0.0,0.0
1704780523439499427,8998,1704780523438984219,imu_link,0.0035767951784662047,-0.0015611922219543055,-0.8301533886337416,-0.557521408158479,0.0,0.0,0.0,0.0,0.0,0.0,0.0,0.0,0.0,0.008552113334772213,-0.01972222054753592,-0.023038346126325153,0.0,0.0,0.0,0.0,0.0,0.0,0.0,0.0,0.0,-0.11375713999999998,0.355981395,10.06946822,0.0,0.0,0.0,0.0,0.0,0.0,0.0,0.0,0.0
1704780523539673350,8999,1704780523539204224,imu_link,0.00391616667746332,-0.0010585232713585056,-0.829521206180216,-0.5584604835298177,0.0,0.0,0.0,0.0,0.0,0.0,0.0,0.0,0.0,-0.024085543677521744,0.012217304763960306,-0.019896753472735354,0.0,0.0,0.0,0.0,0.0,0.0,0.0,0.0,0.0,0.006864655,-0.016671304999999997,9.617381654999999,0.0,0.0,0.0,0.0,0.0,0.0,0.0,0.0,0.0
1704780523638593130,9000,1704780523638142142,imu_link,0.004206492297087396,-0.0009417630603300602,-0.8291309830411671,-0.5590377728437324,0.0,0.0,0.0,0.0,0.0,0.0,0.0,0.0,0.0,-0.0012217304763960308,-0.0022689280275926286,-0.01832595714594046,0.0,0.0,0.0,0.0,0.0,0.0,0.0,0.0,0.0,0.15004174499999998,-0.371672035,9.76153941,0.0,0.0,0.0,0.0,0.0,0.0,0.0,0.0,0.0
1704780523738818820,9001,1704780523738432023,imu_link,0.004684077293186458,-0.0017967144199514127,-0.8284931244419889,-0.5599767620085284,0.0,0.0,0.0,0.0,0.0,0.0,0.0,0.0,0.0,0.01780235837034216,0.021118483949131385,-0.017278759594743863,0.0,0.0,0.0,0.0,0.0,0.0,0.0,0.0,0.0,-0.15886772999999998,0.09022118,9.96159507,0.0,0.0,0.0,0.0,0.0,0.0,0.0,0.0,0.0
1704780523839029575,9002,1704780523838631160,imu_link,0.004100787905219442,-0.0020368301582685882,-0.8282489119472154,-0.5603416589186605,0.0,0.0,0.0,0.0,0.0,0.0,0.0,0.0,0.0,0.008028514559173916,-0.007504915783575617,-0.00890117918517108,0.0,0.0,0.0,0.0,0.0,0.0,0.0,0.0,0.0,-0.11375713999999998,-0.09414383999999999,9.80665,0.0,0.0,0.0,0.0,0.0,0.0,0.0,0.0,0.0
1704780523939190441,9003,1704780523938729975,imu_link,0.004930833949482515,-0.004079474146454359,-0.8277964456539865,-0.5609920581700581,0.0,0.0,0.0,0.0,0.0,0.0,0.0,0.0,0.0,0.021467549799530253,0.04520402762665313,-0.016406094968746697,0.0,0.0,0.0,0.0,0.0,0.0,0.0,0.0,0.0,-0.24712757999999999,0.10395048999999999,10.010628319999999,0.0,0.0,0.0,0.0,0.0,0.0,0.0,0.0,0.0
1704780524038300231,9004,1704780524037925646,imu_link,0.0047839222800212175,-0.003984486419380156,-0.827454588648731,-0.5614981225968184,0.0,0.0,0.0,0.0,0.0,0.0,0.0,0.0,0.0,-0.01291543646475804,-0.02391101075232232,-0.007504915783575617,0.0,0.0,0.0,0.0,0.0,0.0,0.0,0.0,0.0,-0.195152335,0.310870805,9.827243965,0.0,0.0,0.0,0.0,0.0,0.0,0.0,0.0,0.0
1704780524138195631,9005,1704780524137751936,imu_link,0.005414795731738454,-0.0036764388426912984,-0.8273080099694419,-0.5617104417981043,0.0,0.0,0.0,0.0,0.0,0.0,0.0,0.0,0.0,0.0008726646259971648,0.0008726646259971648,-0.005759586531581288,0.0,0.0,0.0,0.0,0.0,0.0,0.0,0.0,0.0,-0.25301156999999996,-0.41776328999999995,9.923349135,0.0,0.0,0.0,0.0,0.0,0.0,0.0,0.0,0.0
1704780524239225895,9006,1704780524238696306,imu_link,0.003917835576662277,-0.0030845988934346223,-0.827069309927515,-0.5620778348147923,0.0,0.0,0.0,0.0,0.0,0.0,0.0,0.0,0.0,0.02234021442552742,-0.0158824961931484,-0.007504915783575617,0.0,0.0,0.0,0.0,0.0,0.0,0.0,0.0,0.0,-0.00196133,0.11866046499999999,9.790959359999999,0.0,0.0,0.0,0.0,0.0,0.0,0.0,0.0,0.0
1704780524338791691,9007,1704780524338302282,imu_link,0.004098890205642268,-0.00437009762150458,-0.8269142491376056,-0.5622961194237875,0.0,0.0,0.0,0.0,0.0,0.0,0.0,0.0,0.0,0.04537856055185257,0.009773843811168246,-0.004014257279586958,0.0,0.0,0.0,0.0,0.0,0.0,0.0,0.0,0.0,-0.263798885,-0.17455837,9.893929185,0.0,0.0,0.0,0.0,0.0,0.0,0.0,0.0,0.0
1704780524439128794,9008,1704780524438651850,imu_link,0.0029332622236329297,-0.00453040667582809,-0.8266209786061778,-0.5627331775506437,0.0,0.0,0.0,0.0,0.0,0.0,0.0,0.0,0.0,-0.004014257279586958,-0.021118483949131385,-0.012042771838760872,0.0,0.0,0.0,0.0,0.0,0.0,0.0,0.0,0.0,-0.008825985,0.5501530649999999,9.910600489999998,0.0,0.0,0.0,0.0,0.0,0.0,0.0,0.0,0.0
1704780524539207530,9009,1704780524538767457,imu_link,0.0034068706376784927,-0.003059145468157838,-0.8265304339550088,-0.5628734108195267,0.0,0.0,0.0,0.0,0.0,0.0,0.0,0.0,0.0,-0.048869219055841226,0.010122909661567111,0.004014257279586958,0.0,0.0,0.0,0.0,0.0,0.0,0.0,0.0,0.0,0.0784532,0.08924051499999999,9.813514654999999,0.0,0.0,0.0,0.0,0.0,0.0,0.0,0.0,0.0
1704780524638278627,9010,1704780524637887915,imu_link,0.003484987826703335,-0.0024793194823983728,-0.8264837688405345,-0.5629443024650819,0.0,0.0,0.0,0.0,0.0,0.0,0.0,0.0,0.0,0.009250245035569947,-0.026529004630313806,-0.016057029118347832,0.0,0.0,0.0,0.0,0.0,0.0,0.0,0.0,0.0,-0.12062179499999999,-0.665871535,9.884122535,0.0,0.0,0.0,0.0,0.0,0.0,0.0,0.0,0.0
1704780524738550490,9011,1704780524738131438,imu_link,0.0028170656598060177,-0.003612766886936296,-0.8259878851768856,-0.5636692519532223,0.0,0.0,0.0,0.0,0.0,0.0,0.0,0.0,0.0,0.003316125578789226,0.01902408884673819,-0.011519173063162576,0.0,0.0,0.0,0.0,0.0,0.0,0.0,0.0,0.0,-0.23339827,0.6070316349999999,9.82234064,0.0,0.0,0.0,0.0,0.0,0.0,0.0,0.0,0.0
1704780524838774991,9012,1704780524838547151,imu_link,0.0027864201203643964,-0.0018000352397149937,-0.8254047834404152,-0.5645316104610351,0.0,0.0,0.0,0.0,0.0,0.0,0.0,0.0,0.0,-0.04747295565424577,-0.03735004599267865,-0.04136430327226561,0.0,0.0,0.0,0.0,0.0,0.0,0.0,0.0,0.0,-0.12062179499999999,-0.34911674,9.81841798,0.0,0.0,0.0,0.0,0.0,0.0,0.0,0.0,0.0
1704780524938798791,9013,1704780524938354694,imu_link,0.002552344984765243,-0.0009092812253875636,-0.8237286360087409,-0.5669777711356162,0.0,0.0,0.0,0.0,0.0,0.0,0.0,0.0,0.0,0.021467549799530253,-0.012217304763960306,-0.06841690667817771,0.0,0.0,0.0,0.0,0.0,0.0,0.0,0.0,0.0,-0.0588399,-0.852197885,10.00670566,0.0,0.0,0.0,0.0,0.0,0.0,0.0,0.0,0.0
1704780525037736717,9014,1704780525037483244,imu_link,0.0008714517626405209,-0.0013470655348677965,-0.8219437349689693,-0.569566433817453,0.0,0.0,0.0,0.0,0.0,0.0,0.0,0.0,0.0,0.005934119456780722,-0.013788101090755204,-0.06213372137099814,0.0,0.0,0.0,0.0,0.0,0.0,0.0,0.0,0.0,0.016671304999999997,0.371672035,9.62032365,0.0,0.0,0.0,0.0,0.0,0.0,0.0,0.0,0.0
1704780525137863705,9015,1704780525137555719,imu_link,0.0010367337691700813,-0.00019244759786334975,-0.8195521033292462,-0.5730036981343335,0.0,0.0,0.0,0.0,0.0,0.0,0.0,0.0,0.0,0.0031415926535897933,0.002967059728390361,-0.10262536001726656,0.0,0.0,0.0,0.0,0.0,0.0,0.0,0.0,0.0,0.01372931,-0.793357985,9.56344508,0.0,0.0,0.0,0.0,0.0,0.0,0.0,0.0,0.0
1704780525238215632,9016,1704780525237792863,imu_link,0.0012805607205935753,-0.0027230257662317564,-0.8163836701372115,-0.5775020765574908,0.0,0.0,0.0,0.0,0.0,0.0,0.0,0.0,0.0,0.06283185307179587,0.027401669256310976,-0.10506882097005864,0.0,0.0,0.0,0.0,0.0,0.0,0.0,0.0,0.0,-0.087279185,-0.14513842,10.450946905,0.0,0.0,0.0,0.0,0.0,0.0,0.0,0.0,0.0
1704780525338240503,9017,1704780525337959489,imu_link,0.0006633710362768501,-0.004331074510417202,-0.8142540802854135,-0.5804921140472183,0.0,0.0,0.0,0.0,0.0,0.0,0.0,0.0,0.0,-0.01815142422074103,0.011693705988362009,-0.045029494701453704,0.0,0.0,0.0,0.0,0.0,0.0,0.0,0.0,0.0,0.087279185,1.16110736,9.403596684999998,0.0,0.0,0.0,0.0,0.0,0.0,0.0,0.0,0.0
1704780525438429476,9018,1704780525438154289,imu_link,0.0019467019093504397,-0.0026789036170220305,-0.8135005819292013,-0.5815546724323843,0.0,0.0,0.0,0.0,0.0,0.0,0.0,0.0,0.0,-0.029845130209103034,-0.015184364492350668,-0.016057029118347832,0.0,0.0,0.0,0.0,0.0,0.0,0.0,0.0,0.0,-0.08041453,-0.548191735,9.674260225,0.0,0.0,0.0,0.0,0.0,0.0,0.0,0.0,0.0
1704780525538852805,9019,1704780525538441185,imu_link,0.00158840085821143,-0.0031773684929424974,-0.8129401992416857,-0.5823363407594122,0.0,0.0,0.0,0.0,0.0,0.0,0.0,0.0,0.0,0.054279739737023644,0.019198621771937627,-0.021467549799530253,0.0,0.0,0.0,0.0,0.0,0.0,0.0,0.0,0.0,-0.036284605,-0.263798885,9.968459724999999,0.0,0.0,0.0,0.0,0.0,0.0,0.0,0.0,0.0
1704780525637892790,9020,1704780525637538521,imu_link,0.0016739769395448688,-0.005602709370795693,-0.8126706710522174,-0.5826939058034253,0.0,0.0,0.0,0.0,0.0,0.0,0.0,0.0,0.0,0.0038397243543875246,0.02199114857512855,0.0008726646259971648,0.0,0.0,0.0,0.0,0.0,0.0,0.0,0.0,0.0,-0.18240368999999998,0.7541313849999999,9.805669335,0.0,0.0,0.0,0.0,0.0,0.0,0.0,0.0,0.0
1704780525737912294,9021,1704780525737688555,imu_link,0.0009152645153476721,-0.004414477738630499,-0.8126800468349147,-0.5826927287632505,0.0,0.0,0.0,0.0,0.0,0.0,0.0,0.0,0.0,-0.030368728984701335,-0.05899212871740834,-0.010297442586766544,0.0,0.0,0.0,0.0,0.0,0.0,0.0,0.0,0.0,-0.220649625,-0.19024901,10.01847364,0.0,0.0,0.0,0.0,0.0,0.0,0.0,0.0,0.0
1704780525838634354,9022,1704780525838054778,imu_link,0.0005081155463912792,-0.003480919246814671,-0.8121766637379482,-0.583400970087713,0.0,0.0,0.0,0.0,0.0,0.0,0.0,0.0,0.0,0.005759586531581288,0.0143116998663535,-0.01308996938995747,0.0,0.0,0.0,0.0,0.0,0.0,0.0,0.0,0.0,0.032361944999999996,-0.08237586,9.237864299999998,0.0,0.0,0.0,0.0,0.0,0.0,0.0,0.0,0.0
1704780525938175638,9023,1704780525937940299,imu_link,0.00031484926369233844,-0.0034500291965264096,-0.8120751285532176,-0.583542615199404,0.0,0.0,0.0,0.0,0.0,0.0,0.0,0.0,0.0,-0.007679448708775049,0.0041887902047863905,0.0008726646259971648,0.0,0.0,0.0,0.0,0.0,0.0,0.0,0.0,0.0,0.008825985,0.22653361499999997,10.4735022,0.0,0.0,0.0,0.0,0.0,0.0,0.0,0.0,0.0
1704780526037084227,9024,1704780526036845796,imu_link,0.0012667646674524025,-0.0039194788340938935,-0.8120209266432832,-0.5836137829818021,0.0,0.0,0.0,0.0,0.0,0.0,0.0,0.0,0.0,-0.020245819323134222,0.01117010721276371,-0.002967059728390361,0.0,0.0,0.0,0.0,0.0,0.0,0.0,0.0,0.0,-0.18828767999999999,0.102969825,9.52225715,0.0,0.0,0.0,0.0,0.0,0.0,0.0,0.0,0.0
1704780526137637625,9025,1704780526137331562,imu_link,0.0013689540865794306,-0.003777634984183003,-0.8120725220807209,-0.5835426927998434,0.0,0.0,0.0,0.0,0.0,0.0,0.0,0.0,0.0,0.006632251157578452,-0.007679448708775049,0.004363323129985824,0.0,0.0,0.0,0.0,0.0,0.0,0.0,0.0,0.0,-0.065704555,-0.142196425,9.846857264999999,0.0,0.0,0.0,0.0,0.0,0.0,0.0,0.0,0.0
1704780526237677508,9026,1704780526237457366,imu_link,0.0008515161300077249,-0.004049918444319829,-0.8121733655938029,-0.5834014889430001,0.0,0.0,0.0,0.0,0.0,0.0,0.0,0.0,0.0,0.008028514559173916,0.0006981317007977319,0.0019198621771937623,0.0,0.0,0.0,0.0,0.0,0.0,0.0,0.0,0.0,0.08531785499999998,0.15102241,9.903735834999999,0.0,0.0,0.0,0.0,0.0,0.0,0.0,0.0,0.0
1704780526337475388,9027,1704780526337267965,imu_link,0.0015832721060888848,-0.003929712005303185,-0.8123261075119724,-0.5831880877276567,0.0,0.0,0.0,0.0,0.0,0.0,0.0,0.0,0.0,-0.017976891295541593,0.027925268031909273,0.008726646259971648,0.0,0.0,0.0,0.0,0.0,0.0,0.0,0.0,0.0,0.10591182,0.212804305,9.817437315000001,0.0,0.0,0.0,0.0,0.0,0.0,0.0,0.0,0.0
1704780526437669289,9028,1704780526437424554,imu_link,0.0025985743310972566,-0.004012614760721365,-0.8124769606191259,-0.5829736999190748,0.0,0.0,0.0,0.0,0.0,0.0,0.0,0.0,0.0,0.0041887902047863905,-0.006108652381980153,0.0020943951023931952,0.0,0.0,0.0,0.0,0.0,0.0,0.0,0.0,0.0,-0.220649625,-0.29125750499999997,9.924329799999999,0.0,0.0,0.0,0.0,0.0,0.0,0.0,0.0,0.0
1704780526538396332,9029,1704780526538096767,imu_link,0.002547700282654093,-0.004083516716183291,-0.8124766073588453,-0.5829739244676039,0.0,0.0,0.0,0.0,0.0,0.0,0.0,0.0,0.0,0.0022689280275926286,0.020071286397934786,0.0006981317007977319,0.0,0.0,0.0,0.0,0.0,0.0,0.0,0.0,0.0,-0.14513842,0.28831551,9.684066875,0.0,0.0,0.0,0.0,0.0,0.0,0.0,0.0,0.0
1704780526637789513,9030,1704780526637419198,imu_link,0.0035641706100480964,-0.0034155334118018965,-0.8125806133039337,-0.5828279143126025,0.0,0.0,0.0,0.0,0.0,0.0,0.0,0.0,0.0,-0.024260076602721177,-0.014835298641951801,0.0038397243543875246,0.0,0.0,0.0,0.0,0.0,0.0,0.0,0.0,0.0,-0.212804305,-0.000980665,9.90863916,0.0,0.0,0.0,0.0,0.0,0.0,0.0,0.0,0.0
1704780526739263921,9031,1704780526738768387,imu_link,0.004265226654232721,-0.002737604964799962,-0.8125319777840676,-0.5828945860436141,0.0,0.0,0.0,0.0,0.0,0.0,0.0,0.0,0.0,-0.004886921905584123,0.028274333882308142,-0.006108652381980153,0.0,0.0,0.0,0.0,0.0,0.0,0.0,0.0,0.0,-0.0392266,-0.18534568499999998,9.70662217,0.0,0.0,0.0,0.0,0.0,0.0,0.0,0.0,0.0
1704780526837532886,9032,1704780526837135360,imu_link,0.004771875499428142,-0.0027800543631805977,-0.8124291879226967,-0.5830337169608831,0.0,0.0,0.0,0.0,0.0,0.0,0.0,0.0,0.0,-0.006806784082777885,-0.011344640137963142,0.0020943951023931952,0.0,0.0,0.0,0.0,0.0,0.0,0.0,0.0,0.0,-0.25889555999999997,0.14611908499999998,9.826263299999999,0.0,0.0,0.0,0.0,0.0,0.0,0.0,0.0,0.0
1704780526937105863,9033,1704780526936762004,imu_link,0.005159437674785271,-0.0020897426867334933,-0.8125840407814299,-0.5828174584256266,0.0,0.0,0.0,0.0,0.0,0.0,0.0,0.0,0.0,-0.023736477827122886,0.0022689280275926286,0.008203047484373348,0.0,0.0,0.0,0.0,0.0,0.0,0.0,0.0,0.0,-0.236340265,0.046091255,10.100849499999999,0.0,0.0,0.0,0.0,0.0,0.0,0.0,0.0,0.0
1704780527038154457,9034,1704780527037736135,imu_link,0.005556520829747485,-0.0018339997884562341,-0.8128893041633136,-0.5823888226073097,0.0,0.0,0.0,0.0,0.0,0.0,0.0,0.0,0.0,-0.0054105206811824215,0.011693705988362009,0.006806784082777885,0.0,0.0,0.0,0.0,0.0,0.0,0.0,0.0,0.0,-0.03530394,-0.24810824499999998,9.678182885,0.0,0.0,0.0,0.0,0.0,0.0,0.0,0.0,0.0
1704780527138074689,9035,1704780527137600767,imu_link,0.005292465060362656,-0.002501766133802028,-0.8130395601442538,-0.5821790142389494,0.0,0.0,0.0,0.0,0.0,0.0,0.0,0.0,0.0,0.010122909661567111,-0.004014257279586958,0.005585053606381855,0.0,0.0,0.0,0.0,0.0,0.0,0.0,0.0,0.0,-0.04511059,-0.053936574999999994,9.88314187,0.0,0.0,0.0,0.0,0.0,0.0,0.0,0.0,0.0
1704780527237890371,9036,1704780527237512589,imu_link,0.005119607196991218,-0.003342652410894439,-0.8131373049302791,-0.5820398093152483,0.0,0.0,0.0,0.0,0.0,0.0,0.0,0.0,0.0,-0.006283185307179587,0.00942477796076938,-0.00017453292519943296,0.0,0.0,0.0,0.0,0.0,0.0,0.0,0.0,0.0,-0.13925443,0.23830159499999998,9.889025859999999,0.0,0.0,0.0,0.0,0.0,0.0,0.0,0.0,0.0
1704780527338355763,9037,1704780527337966257,imu_link,0.005282688701886542,-0.0028148471446985783,-0.8131905046702662,-0.5819668143027991,0.0,0.0,0.0,0.0,0.0,0.0,0.0,0.0,0.0,-0.017278759594743863,0.0013962634015954637,0.00471238898038469,0.0,0.0,0.0,0.0,0.0,0.0,0.0,0.0,0.0,-0.0784532,-0.06374322499999999,9.5124505,0.0,0.0,0.0,0.0,0.0,0.0,0.0,0.0,0.0
1704780527437695979,9038,1704780527437104151,imu_link,0.0061146501016540785,-0.0033014703147740175,-0.813287780848502,-0.581820158528745,0.0,0.0,0.0,0.0,0.0,0.0,0.0,0.0,0.0,0.01884955592153876,0.019547687622336492,0.0027925268031909274,0.0,0.0,0.0,0.0,0.0,0.0,0.0,0.0,0.0,-0.148080415,-0.316754795,10.024357629999999,0.0,0.0,0.0,0.0,0.0,0.0,0.0,0.0,0.0
1704780527537416008,9039,1704780527536973139,imu_link,0.005870247793945222,-0.004093057733870614,-0.8132326808466099,-0.5818946587418212,0.0,0.0,0.0,0.0,0.0,0.0,0.0,0.0,0.0,0.004014257279586958,-0.004014257279586958,-0.005934119456780722,0.0,0.0,0.0,0.0,0.0,0.0,0.0,0.0,0.0,0.09316317499999999,0.250069575,9.529121804999999,0.0,0.0,0.0,0.0,0.0,0.0,0.0,0.0,0.0
1704780527638206231,9040,1704780527637834722,imu_link,0.006427088596576896,-0.003315774145165508,-0.8129314658997899,-0.5823144596556131,0.0,0.0,0.0,0.0,0.0,0.0,0.0,0.0,0.0,-0.02199114857512855,0.008552113334772213,-0.009250245035569947,0.0,0.0,0.0,0.0,0.0,0.0,0.0,0.0,0.0,0.06374322499999999,0.000980665,9.725254805,0.0,0.0,0.0,0.0,0.0,0.0,0.0,0.0,0.0
1704780527738091784,9041,1704780527737644841,imu_link,0.006924429063654463,-0.0029214216777990972,-0.812881664427878,-0.5823803887619208,0.0,0.0,0.0,0.0,0.0,0.0,0.0,0.0,0.0,0.008203047484373348,-0.006981317007977318,0.006981317007977318,0.0,0.0,0.0,0.0,0.0,0.0,0.0,0.0,0.0,-0.30204482,-0.34421341499999997,10.076332875,0.0,0.0,0.0,0.0,0.0,0.0,0.0,0.0,0.0
1704780527837279176,9042,1704780527836887544,imu_link,0.006723096083604308,-0.003201064679659688,-0.8132361794017188,-0.5818861311941218,0.0,0.0,0.0,0.0,0.0,0.0,0.0,0.0,0.0,0.0017453292519943296,0.004014257279586958,0.009075712110370514,0.0,0.0,0.0,0.0,0.0,0.0,0.0,0.0,0.0,-0.43639592499999996,0.26870221,9.678182885,0.0,0.0,0.0,0.0,0.0,0.0,0.0,0.0,0.0
1704780527936984584,9043,1704780527936534429,imu_link,0.005557697846105441,-0.0025798373551553467,-0.8133941532583687,-0.5816806751809568,0.0,0.0,0.0,0.0,0.0,0.0,0.0,0.0,0.0,0.017278759594743863,-0.04066617157146788,0.004537856055185257,0.0,0.0,0.0,0.0,0.0,0.0,0.0,0.0,0.0,-0.34911674,-0.30792880999999994,10.09104285,0.0,0.0,0.0,0.0,0.0,0.0,0.0,0.0,0.0
1704780528037834084,9044,1704780528037445951,imu_link,0.00464533563832825,-0.0038558890278105407,-0.8135920832351115,-0.5814047429061482,0.0,0.0,0.0,0.0,0.0,0.0,0.0,0.0,0.0,0.05462880558742251,0.02495820830351891,0.011693705988362009,0.0,0.0,0.0,0.0,0.0,0.0,0.0,0.0,0.0,-0.12748644999999997,-0.059820565,10.078294205,0.0,0.0,0.0,0.0,0.0,0.0,0.0,0.0,0.0
1704780528137369972,9045,1704780528137145964,imu_link,0.003055991005643517,-0.005182316733537019,-0.8139915831205199,-0.5808455105457873,0.0,0.0,0.0,0.0,0.0,0.0,0.0,0.0,0.0,0.006108652381980153,-0.016755160819145562,0.014137166941154071,0.0,0.0,0.0,0.0,0.0,0.0,0.0,0.0,0.0,0.13631243499999998,0.624683605,9.018195339999998,0.0,0.0,0.0,0.0,0.0,0.0,0.0,0.0,0.0
1704780528238001221,9046,1704780528237608803,imu_link,0.005077498461199007,-0.004152781515868419,-0.8144508549747751,-0.5801954655509776,0.0,0.0,0.0,0.0,0.0,0.0,0.0,0.0,0.0,-0.06579891280018622,0.030194196059501903,0.023212879051524585,0.0,0.0,0.0,0.0,0.0,0.0,0.0,0.0,0.0,-0.047071919999999996,0.420705285,10.39112634,0.0,0.0,0.0,0.0,0.0,0.0,0.0,0.0,0.0
1704780528337943971,9047,1704780528337605260,imu_link,0.006842076195033962,-0.0019718950459901297,-0.8151163372155903,-0.579253532080305,0.0,0.0,0.0,0.0,0.0,0.0,0.0,0.0,0.0,-0.013439035240356337,0.00645771823237902,0.016929693744344998,0.0,0.0,0.0,0.0,0.0,0.0,0.0,0.0,0.0,-0.15396440499999997,-0.8217972699999999,9.666414905,0.0,0.0,0.0,0.0,0.0,0.0,0.0,0.0,0.0
1704780528436929043,9048,1704780528436696520,imu_link,0.007214299446381948,-0.003403962197146668,-0.8157143576493836,-0.5783999080649236,0.0,0.0,0.0,0.0,0.0,0.0,0.0,0.0,0.0,0.04084070449666731,0.026529004630313806,0.03106686068549907,0.0,0.0,0.0,0.0,0.0,0.0,0.0,0.0,0.0,-0.23241760499999997,0.17455837,9.826263299999999,0.0,0.0,0.0,0.0,0.0,0.0,0.0,0.0,0.0
1704780528537180551,9049,1704780528536941057,imu_link,0.00704444136248605,-0.004547513609165391,-0.8168158713676842,-0.5768375232660542,0.0,0.0,0.0,0.0,0.0,0.0,0.0,0.0,0.0,-0.005235987755982988,-0.006981317007977318,0.03647738136668148,0.0,0.0,0.0,0.0,0.0,0.0,0.0,0.0,0.0,-0.23830159499999998,0.37069136999999996,9.700738179999998,0.0,0.0,0.0,0.0,0.0,0.0,0.0,0.0,0.0
1704780528637263636,9050,1704780528637053372,imu_link,0.006831335523987325,-0.00363689294444114,-0.8175771581599671,-0.5757670503942907,0.0,0.0,0.0,0.0,0.0,0.0,0.0,0.0,0.0,-0.008203047484373348,0.0013962634015954637,0.020245819323134222,0.0,0.0,0.0,0.0,0.0,0.0,0.0,0.0,0.0,-0.19907499499999998,-0.275566865,9.868431894999999,0.0,0.0,0.0,0.0,0.0,0.0,0.0,0.0,0.0
1704780528737758459,9051,1704780528737369031,imu_link,0.006834506519142962,-0.003630930455187661,-0.8180792680605636,-0.5750534036367074,0.0,0.0,0.0,0.0,0.0,0.0,0.0,0.0,0.0,-0.024085543677521744,-0.024609142453120045,0.015184364492350668,0.0,0.0,0.0,0.0,0.0,0.0,0.0,0.0,0.0,-0.385401345,0.4118793,9.88118054,0.0,0.0,0.0,0.0,0.0,0.0,0.0,0.0,0.0
1704780528836651549,9052,1704780528836423388,imu_link,0.006382352227011129,-0.001387924335934663,-0.8184920798345104,-0.5744806824378568,0.0,0.0,0.0,0.0,0.0,0.0,0.0,0.0,0.0,-0.04153883619746504,-0.017627825445142728,0.016231562043547268,0.0,0.0,0.0,0.0,0.0,0.0,0.0,0.0,0.0,-0.138273765,-0.10002783,9.740945445,0.0,0.0,0.0,0.0,0.0,0.0,0.0,0.0,0.0
1704780528936995147,9053,1704780528936552374,imu_link,0.006219730151613326,-0.0011579503721644122,-0.8192444509204936,-0.5734095427735361,0.0,0.0,0.0,0.0,0.0,0.0,0.0,0.0,0.0,0.02565634000431664,-0.0041887902047863905,0.03438298626428829,0.0,0.0,0.0,0.0,0.0,0.0,0.0,0.0,0.0,0.004903325,-0.35009740500000003,9.94786576,0.0,0.0,0.0,0.0,0.0,0.0,0.0,0.0,0.0
1704780529037757899,9054,1704780529037321074,imu_link,0.005033035228468109,-0.002545165223572167,-0.820839685636064,-0.5711308091630684,0.0,0.0,0.0,0.0,0.0,0.0,0.0,0.0,0.0,0.016929693744344998,-0.0019198621771937623,0.07504915783575616,0.0,0.0,0.0,0.0,0.0,0.0,0.0,0.0,0.0,-0.140235095,0.8080679599999999,9.72427414,0.0,0.0,0.0,0.0,0.0,0.0,0.0,0.0,0.0
1704780529137290724,9055,1704780529136927426,imu_link,0.005005023529166835,-0.001964077161979315,-0.8235242614341498,-0.5672555711226752,0.0,0.0,0.0,0.0,0.0,0.0,0.0,0.0,0.0,-0.02600540585471551,-0.010471975511965976,0.10995574287564275,0.0,0.0,0.0,0.0,0.0,0.0,0.0,0.0,0.0,-0.116699135,0.340290755,10.109675484999999,0.0,0.0,0.0,0.0,0.0,0.0,0.0,0.0,0.0
1704780529237631733,9056,1704780529237216919,imu_link,0.004880768641718136,-0.0008935822565758493,-0.8267320241936579,-0.5625740304892095,0.0,0.0,0.0,0.0,0.0,0.0,0.0,0.0,0.0,-0.003490658503988659,-0.0031415926535897933,0.11519173063162574,0.0,0.0,0.0,0.0,0.0,0.0,0.0,0.0,0.0,0.10395048999999999,-0.09022118,9.636994955,0.0,0.0,0.0,0.0,0.0,0.0,0.0,0.0,0.0
1704780529337761270,9057,1704780529337300722,imu_link,0.005390781493098363,-0.0018345462420774061,-0.8300519928499691,-0.5576569403143603,0.0,0.0,0.0,0.0,0.0,0.0,0.0,0.0,0.0,0.013788101090755204,0.015707963267948967,0.12426744274199628,0.0,0.0,0.0,0.0,0.0,0.0,0.0,0.0,0.0,-0.13631243499999998,0.283412185,9.762520075,0.0,0.0,0.0,0.0,0.0,0.0,0.0,0.0,0.0
1704780529436948603,9058,1704780529436538946,imu_link,0.005233210978601083,-0.0018974520995795542,-0.8335877106249595,-0.5523590696941821,0.0,0.0,0.0,0.0,0.0,0.0,0.0,0.0,0.0,-0.01064650843716541,-0.008726646259971648,0.12810716709638378,0.0,0.0,0.0,0.0,0.0,0.0,0.0,0.0,0.0,-0.16965504499999998,0.32460011499999997,9.801746675,0.0,0.0,0.0,0.0,0.0,0.0,0.0,0.0,0.0
1704780529537021915,9059,1704780529536617764,imu_link,0.00533489915944997,-0.0010887187873800887,-0.8370918438507169,-0.547035280855785,0.0,0.0,0.0,0.0,0.0,0.0,0.0,0.0,0.0,-0.0158824961931484,-0.010122909661567111,0.12636183784438945,0.0,0.0,0.0,0.0,0.0,0.0,0.0,0.0,0.0,-0.195152335,0.11081514499999999,9.893929185,0.0,0.0,0.0,0.0,0.0,0.0,0.0,0.0,0.0
1704780529637214245,9060,1704780529636834518,imu_link,0.0053839343186987895,-0.0006681647381588341,-0.8404186069628555,-0.5419106308956746,0.0,0.0,0.0,0.0,0.0,0.0,0.0,0.0,0.0,-0.010471975511965976,0.004886921905584123,0.11501719770642631,0.0,0.0,0.0,0.0,0.0,0.0,0.0,0.0,0.0,-0.13631243499999998,-0.023535959999999998,9.94786576,0.0,0.0,0.0,0.0,0.0,0.0,0.0,0.0,0.0
1704780529737274356,9061,1704780529737017445,imu_link,0.005153092559309131,-0.0010065503575073396,-0.843384919336683,-0.5372841988453685,0.0,0.0,0.0,0.0,0.0,0.0,0.0,0.0,0.0,0.015358897417550098,-0.017976891295541593,0.10978120995044333,0.0,0.0,0.0,0.0,0.0,0.0,0.0,0.0,0.0,-0.157887065,0.13140911,9.76350074,0.0,0.0,0.0,0.0,0.0,0.0,0.0,0.0,0.0
1704780529836619245,9062,1704780529836217750,imu_link,0.004076687389526405,-0.0012206501514841648,-0.8468383491543651,-0.5318333395290723,0.0,0.0,0.0,0.0,0.0,0.0,0.0,0.0,0.0,-0.002967059728390361,-0.0027925268031909274,0.1457349925415265,0.0,0.0,0.0,0.0,0.0,0.0,0.0,0.0,0.0,0.10885381499999999,0.5452497399999999,9.733100125,0.0,0.0,0.0,0.0,0.0,0.0,0.0,0.0,0.0
1704780529937064223,9063,1704780529936560040,imu_link,0.0037889232997227896,-0.0010059355778227583,-0.8508984908693669,-0.5253155150860064,0.0,0.0,0.0,0.0,0.0,0.0,0.0,0.0,0.0,0.007679448708775049,-0.020245819323134222,0.1551597705022959,0.0,0.0,0.0,0.0,0.0,0.0,0.0,0.0,0.0,-0.167693715,0.04412992499999999,9.953749749999998,0.0,0.0,0.0,0.0,0.0,0.0,0.0,0.0,0.0
1704780530037080369,9064,1704780530036580484,imu_link,0.003167562834768869,-0.0010044289425142337,-0.8547726234228693,-0.5189920229781697,0.0,0.0,0.0,0.0,0.0,0.0,0.0,0.0,0.0,0.01361356816555577,0.008726646259971648,0.14835298641951802,0.0,0.0,0.0,0.0,0.0,0.0,0.0,0.0,0.0,-0.02157463,0.39324666499999994,9.848818595,0.0,0.0,0.0,0.0,0.0,0.0,0.0,0.0,0.0
1704780530137098857,9065,1704780530136737030,imu_link,0.00353422442177255,-0.0008891008504790316,-0.8587772820162198,-0.5123361188226417,0.0,0.0,0.0,0.0,0.0,0.0,0.0,0.0,0.0,-0.013264502315156903,-0.013962634015954637,0.16563174601426187,0.0,0.0,0.0,0.0,0.0,0.0,0.0,0.0,0.0,-0.13042844499999998,0.52563644,9.771346059999999,0.0,0.0,0.0,0.0,0.0,0.0,0.0,0.0,0.0
1704780530237418554,9066,1704780530236990980,imu_link,0.003681077192400199,7.097022898624951e-05,-0.8631725034199078,-0.5048957060361472,0.0,0.0,0.0,0.0,0.0,0.0,0.0,0.0,0.0,-0.004014257279586958,0.007504915783575617,0.17418385934903408,0.0,0.0,0.0,0.0,0.0,0.0,0.0,0.0,0.0,-0.026477955,0.020593965,10.001802334999999,0.0,0.0,0.0,0.0,0.0,0.0,0.0,0.0,0.0
1704780530337441592,9067,1704780530337052348,imu_link,0.0036579202788811433,-0.0009872332297219634,-0.8679344473391576,-0.49666431330613514,0.0,0.0,0.0,0.0,0.0,0.0,0.0,0.0,0.0,0.025132741228718346,0.00942477796076938,0.21519909677090085,0.0,0.0,0.0,0.0,0.0,0.0,0.0,0.0,0.0,-0.21966896,0.685484835,9.722312809999998,0.0,0.0,0.0,0.0,0.0,0.0,0.0,0.0,0.0
1704780530436816239,9068,1704780530436385102,imu_link,0.0035507739500221258,-0.0009772518153538805,-0.8738103014617268,-0.4862530144303594,0.0,0.0,0.0,0.0,0.0,0.0,0.0,0.0,0.0,-0.012391837689159739,-0.015533430342749534,0.24993114888558798,0.0,0.0,0.0,0.0,0.0,0.0,0.0,0.0,0.0,-0.201036325,0.624683605,9.944923764999999,0.0,0.0,0.0,0.0,0.0,0.0,0.0,0.0,0.0
1704780530536940406,9069,1704780530536439576,imu_link,0.003948536700758431,0.0001433810469471321,-0.8792295199725375,-0.47638203126131795,0.0,0.0,0.0,0.0,0.0,0.0,0.0,0.0,0.0,-0.010297442586766544,0.011868238913561443,0.20472712125893486,0.0,0.0,0.0,0.0,0.0,0.0,0.0,0.0,0.0,0.014709975,-0.06374322499999999,9.771346059999999,0.0,0.0,0.0,0.0,0.0,0.0,0.0,0.0,0.0
1704780530637215644,9070,1704780530636759208,imu_link,0.004972560950772801,0.0006236562106411792,-0.8835558372877607,-0.46829901461058593,0.0,0.0,0.0,0.0,0.0,0.0,0.0,0.0,0.0,-0.019896753472735354,0.00471238898038469,0.16231562043547265,0.0,0.0,0.0,0.0,0.0,0.0,0.0,0.0,0.0,-0.02745862,-0.09022118,9.689950864999998,0.0,0.0,0.0,0.0,0.0,0.0,0.0,0.0,0.0
1704780530737177805,9071,1704780530736789784,imu_link,0.0054858057547363765,0.001274190554193143,-0.886802505486463,-0.46211427010706424,0.0,0.0,0.0,0.0,0.0,0.0,0.0,0.0,0.0,-0.008552113334772213,0.007679448708775049,0.12950343049797924,0.0,0.0,0.0,0.0,0.0,0.0,0.0,0.0,0.0,-0.08433718999999999,0.12356378999999999,9.715448154999999,0.0,0.0,0.0,0.0,0.0,0.0,0.0,0.0,0.0
1704780530836397023,9072,1704780530835947996,imu_link,0.00625724913608684,0.0013048204106808304,-0.8900048430945663,-0.4559062661832596,0.0,0.0,0.0,0.0,0.0,0.0,0.0,0.0,0.0,-0.009948376736367677,0.015184364492350668,0.14887658519511632,0.0,0.0,0.0,0.0,0.0,0.0,0.0,0.0,0.0,-0.191229675,0.18632634999999997,10.242065259999999,0.0,0.0,0.0,0.0,0.0,0.0,0.0,0.0,0.0
1704780530936513757,9073,1704780530936114391,imu_link,0.006597373601925025,0.0008832007817317941,-0.8934392479547323,-0.44913472904243157,0.0,0.0,0.0,0.0,0.0,0.0,0.0,0.0,0.0,0.006981317007977318,0.011344640137963142,0.1525417766243044,0.0,0.0,0.0,0.0,0.0,0.0,0.0,0.0,0.0,-0.03530394,0.10885381499999999,9.33200814,0.0,0.0,0.0,0.0,0.0,0.0,0.0,0.0,0.0
1704780531036743183,9074,1704780531036317381,imu_link,0.007843716800379378,0.00011977653477681727,-0.89677898096783,-0.44240922351894696,0.0,0.0,0.0,0.0,0.0,0.0,0.0,0.0,0.0,0.0012217304763960308,0.033510321638291124,0.14817845349431857,0.0,0.0,0.0,0.0,0.0,0.0,0.0,0.0,0.0,-0.116699135,0.24320491999999996,10.31855713,0.0,0.0,0.0,0.0,0.0,0.0,0.0,0.0,0.0
1704780531136912428,9075,1704780531136418863,imu_link,0.00838749834839936,0.0002997809589819528,-0.8999196313546068,-0.4359750189006481,0.0,0.0,0.0,0.0,0.0,0.0,0.0,0.0,0.0,-0.024609142453120045,0.005061454830783556,0.13980087308474579,0.0,0.0,0.0,0.0,0.0,0.0,0.0,0.0,0.0,-0.053936574999999994,0.30792880999999994,9.081938565,0.0,0.0,0.0,0.0,0.0,0.0,0.0,0.0,0.0
1704780531237111741,9076,1704780531236721451,imu_link,0.00974647377614914,0.0005884794656965744,-0.9033095261720935,-0.42887825762982806,0.0,0.0,0.0,0.0,0.0,0.0,0.0,0.0,0.0,0.00017453292519943296,0.005759586531581288,0.1773254520026239,0.0,0.0,0.0,0.0,0.0,0.0,0.0,0.0,0.0,-0.53936575,0.08531785499999998,10.587259339999997,0.0,0.0,0.0,0.0,0.0,0.0,0.0,0.0,0.0
1704780531337243454,9077,1704780531336808168,imu_link,0.008666897663057239,2.3678460869902204e-05,-0.9073157269224216,-0.42036062613364084,0.0,0.0,0.0,0.0,0.0,0.0,0.0,0.0,0.0,0.024260076602721177,0.004537856055185257,0.1923352835697751,0.0,0.0,0.0,0.0,0.0,0.0,0.0,0.0,0.0,-0.18632634999999997,0.30400615,9.07899657,0.0,0.0,0.0,0.0,0.0,0.0,0.0,0.0,0.0
1704780531436417699,9078,1704780531435994699,imu_link,0.009213843709792875,-0.001857054797964194,-0.9115862508502445,-0.41100141568170334,0.0,0.0,0.0,0.0,0.0,0.0,0.0,0.0,0.0,0.0036651914291880917,0.007504915783575617,0.2155481626212997,0.0,0.0,0.0,0.0,0.0,0.0,0.0,0.0,0.0,-0.30204482,0.728634095,10.168515385,0.0,0.0,0.0,0.0,0.0,0.0,0.0,0.0,0.0
1704780531536658113,9079,1704780531536229843,imu_link,0.007510414571777986,-0.0009025689254189687,-0.9162380236475933,-0.4005629327142582,0.0,0.0,0.0,0.0,0.0,0.0,0.0,0.0,0.0,-0.035430183815484885,-0.06405358354819189,0.24225170017681294,0.0,0.0,0.0,0.0,0.0,0.0,0.0,0.0,0.0,-0.31185147,0.5815343449999999,10.162631395,0.0,0.0,0.0,0.0,0.0,0.0,0.0,0.0,0.0
1704780531636714453,9080,1704780531636302629,imu_link,0.005347189555811013,0.000772671590215426,-0.9211769932485958,-0.3891063577634584,0.0,0.0,0.0,0.0,0.0,0.0,0.0,0.0,0.0,-0.02600540585471551,-0.04066617157146788,0.24329889772800953,0.0,0.0,0.0,0.0,0.0,0.0,0.0,0.0,0.0,-0.28047019,0.07649186999999999,9.903735834999999,0.0,0.0,0.0,0.0,0.0,0.0,0.0,0.0,0.0
1704780531736812713,9081,1704780531736416298,imu_link,0.0024440101684277465,0.0018297693388854405,-0.925768878854636,-0.3780775868822344,0.0,0.0,0.0,0.0,0.0,0.0,0.0,0.0,0.0,0.003490658503988659,-0.07592182246175333,0.24329889772800953,0.0,0.0,0.0,0.0,0.0,0.0,0.0,0.0,0.0,-0.20593965,0.60408964,9.826263299999999,0.0,0.0,0.0,0.0,0.0,0.0,0.0,0.0,0.0
1704780531836276488,9082,1704780531835903097,imu_link,-2.4923825402500192e-05,0.0016041797071292354,-0.930479977310241,-0.3663392386996017,0.0,0.0,0.0,0.0,0.0,0.0,0.0,0.0,0.0,0.035430183815484885,-0.018675022996339326,0.25830872929516074,0.0,0.0,0.0,0.0,0.0,0.0,0.0,0.0,0.0,0.15886772999999998,0.39618865999999997,9.668376235,0.0,0.0,0.0,0.0,0.0,0.0,0.0,0.0,0.0
1704780531936295186,9083,1704780531935856359,imu_link,-0.003236285772925786,0.0005701731456331546,-0.9354088595324036,-0.3535526366261013,0.0,0.0,0.0,0.0,0.0,0.0,0.0,0.0,0.0,0.03944444109507184,-0.0671951762017817,0.29496064358704166,0.0,0.0,0.0,0.0,0.0,0.0,0.0,0.0,0.0,0.216726965,0.7227501049999999,10.03808694,0.0,0.0,0.0,0.0,0.0,0.0,0.0,0.0,0.0
1704780532036590504,9084,1704780532036227739,imu_link,-0.003912189400374284,-0.0008149784582733249,-0.9406389288968788,-0.3393853798087668,0.0,0.0,0.0,0.0,0.0,0.0,0.0,0.0,0.0,0.024260076602721177,0.026529004630313806,0.29792770331543206,0.0,0.0,0.0,0.0,0.0,0.0,0.0,0.0,0.0,0.02941995,0.64135491,9.65562759,0.0,0.0,0.0,0.0,0.0,0.0,0.0,0.0,0.0
1704780532136367170,9085,1704780532136014906,imu_link,-0.004237470081243169,-0.0015879164943284208,-0.9456257316224745,-0.32522530353891127,0.0,0.0,0.0,0.0,0.0,0.0,0.0,0.0,0.0,-0.008377580409572781,0.004537856055185257,0.31049407392979117,0.0,0.0,0.0,0.0,0.0,0.0,0.0,0.0,0.0,0.016671304999999997,1.018910935,10.062603565,0.0,0.0,0.0,0.0,0.0,0.0,0.0,0.0,0.0
1704780532236589779,9086,1704780532236264802,imu_link,-0.0016980379932114592,-0.0018333858791219106,-0.9508923197476459,-0.30951179558804,0.0,0.0,0.0,0.0,0.0,0.0,0.0,0.0,0.0,0.004537856055185257,0.05585053606381855,0.34191000046568915,0.0,0.0,0.0,0.0,0.0,0.0,0.0,0.0,0.0,0.012748645,0.454047895,9.58894237,0.0,0.0,0.0,0.0,0.0,0.0,0.0,0.0,0.0
1704780532337088743,9087,1704780532336506141,imu_link,-0.0009346862419649174,-0.0024516727212496453,-0.9560205205614194,-0.2932880494121261,0.0,0.0,0.0,0.0,0.0,0.0,0.0,0.0,0.0,0.0143116998663535,0.017278759594743863,0.34068826998929314,0.0,0.0,0.0,0.0,0.0,0.0,0.0,0.0,0.0,0.12748644999999997,0.68058151,9.77330739,0.0,0.0,0.0,0.0,0.0,0.0,0.0,0.0,0.0
1704780532436039638,9088,1704780532435693006,imu_link,0.0007842062607355243,-0.002950637571360924,-0.9608702768764746,-0.2769819304102526,0.0,0.0,0.0,0.0,0.0,0.0,0.0,0.0,0.0,-0.023736477827122886,0.026878070480712675,0.3391174736624982,0.0,0.0,0.0,0.0,0.0,0.0,0.0,0.0,0.0,-0.20888164499999998,0.90417313,9.875296549999998,0.0,0.0,0.0,0.0,0.0,0.0,0.0,0.0,0.0
1704780532536235676,9089,1704780532535866636,imu_link,0.0006470237412339705,-0.001620965244164701,-0.9654252781002701,-0.26067409966655986,0.0,0.0,0.0,0.0,0.0,0.0,0.0,0.0,0.0,-0.02548180707911721,-0.015533430342749534,0.33719761148530447,0.0,0.0,0.0,0.0,0.0,0.0,0.0,0.0,0.0,-0.0588399,0.23732092999999999,9.98513103,0.0,0.0,0.0,0.0,0.0,0.0,0.0,0.0,0.0
1704780532636388139,9090,1704780532636042692,imu_link,0.0003330929616401656,-0.0018846926947672024,-0.9694218087663099,-0.24539293728789602,0.0,0.0,0.0,0.0,0.0,0.0,0.0,0.0,0.0,0.022514747350726852,-0.017976891295541593,0.2919935838586513,0.0,0.0,0.0,0.0,0.0,0.0,0.0,0.0,0.0,0.00196133,0.13631243499999998,9.494798529999999,0.0,0.0,0.0,0.0,0.0,0.0,0.0,0.0,0.0
1704780532736438983,9091,1704780532736077061,imu_link,-0.00016136686890764687,-0.0025629887192122227,-0.9728330563748494,-0.23149351929142198,0.0,0.0,0.0,0.0,0.0,0.0,0.0,0.0,0.0,0.00017453292519943296,-0.006108652381980153,0.2972295716146343,0.0,0.0,0.0,0.0,0.0,0.0,0.0,0.0,0.0,-0.22947561,1.150320045,10.22441329,0.0,0.0,0.0,0.0,0.0,0.0,0.0,0.0,0.0
1704780532835679505,9092,1704780532835338631,imu_link,-0.0015611986438093324,-0.0009947848434597355,-0.9763135961552246,-0.21635234000205064,0.0,0.0,0.0,0.0,0.0,0.0,0.0,0.0,0.0,-0.02949606435870417,-0.013439035240356337,0.3150319299849765,0.0,0.0,0.0,0.0,0.0,0.0,0.0,0.0,0.0,-0.12356378999999999,0.27164420499999997,9.39084804,0.0,0.0,0.0,0.0,0.0,0.0,0.0,0.0,0.0
1704780532936048539,9093,1704780532935585360,imu_link,0.0003567432358049534,-0.0004300779541673258,-0.9793463426707112,-0.2021890918539347,0.0,0.0,0.0,0.0,0.0,0.0,0.0,0.0,0.0,0.0054105206811824215,0.0486946861306418,0.26197392072434883,0.0,0.0,0.0,0.0,0.0,0.0,0.0,0.0,0.0,-1.2748645,-0.048052584999999995,10.213625975000001,0.0,0.0,0.0,0.0,0.0,0.0,0.0,0.0,0.0
1704780533036052584,9094,1704780533035675434,imu_link,0.0005579519908547846,-0.0017081066539219201,-0.981741730437412,-0.19021026728068752,0.0,0.0,0.0,0.0,0.0,0.0,0.0,0.0,0.0,0.027401669256310976,-0.015533430342749534,0.23753931119642827,0.0,0.0,0.0,0.0,0.0,0.0,0.0,0.0,0.0,-1.309187775,0.35892339,9.610517,0.0,0.0,0.0,0.0,0.0,0.0,0.0,0.0,0.0
1704780533136264974,9095,1704780533135859844,imu_link,0.0003588719452430839,-0.0019279519127947766,-0.9838517161488933,-0.17897473241557363,0.0,0.0,0.0,0.0,0.0,0.0,0.0,0.0,0.0,-0.0012217304763960308,0.014660765716752367,0.21607176139689802,0.0,0.0,0.0,0.0,0.0,0.0,0.0,0.0,0.0,-0.597224985,0.26281822,9.930213789999998,0.0,0.0,0.0,0.0,0.0,0.0,0.0,0.0,0.0
1704780533235910884,9096,1704780533235381039,imu_link,0.0007498384906629435,-0.0023418748211067376,-0.9856411927380889,-0.1688354007381088,0.0,0.0,0.0,0.0,0.0,0.0,0.0,0.0,0.0,0.006632251157578452,-0.008377580409572781,0.2040289895581371,0.0,0.0,0.0,0.0,0.0,0.0,0.0,0.0,0.0,-0.45895122,0.22947561,9.795862685,0.0,0.0,0.0,0.0,0.0,0.0,0.0,0.0,0.0
1704780533337083026,9097,1704780533335549580,imu_link,0.0008379145212100198,-0.0013737331711023582,-0.9870789006770764,-0.1602268847433663,0.0,0.0,0.0,0.0,0.0,0.0,0.0,0.0,0.0,-0.02495820830351891,0.02076941809873252,0.12775810124598494,0.0,0.0,0.0,0.0,0.0,0.0,0.0,0.0,0.0,0.006864655,-0.26576021499999997,9.819398645,0.0,0.0,0.0,0.0,0.0,0.0,0.0,0.0,0.0
1704780533435728266,9098,1704780533435335420,imu_link,0.0010294475763877224,-0.001311436855396263,-0.9877140266189665,-0.156263309804988,0.0,0.0,0.0,0.0,0.0,0.0,0.0,0.0,0.0,-0.010297442586766544,-0.015184364492350668,0.059341194567807204,0.0,0.0,0.0,0.0,0.0,0.0,0.0,0.0,0.0,0.338329425,-0.026477955,10.099868835,0.0,0.0,0.0,0.0,0.0,0.0,0.0,0.0,0.0
1704780533535949126,9099,1704780533535526712,imu_link,0.0015060114753549104,-0.0011147368846974805,-0.988359541029347,-0.15212464280113405,0.0,0.0,0.0,0.0,0.0,0.0,0.0,0.0,0.0,-0.020245819323134222,0.020420352248333655,0.10786134777324957,0.0,0.0,0.0,0.0,0.0,0.0,0.0,0.0,0.0,0.279489525,0.36382671499999997,9.380060725,0.0,0.0,0.0,0.0,0.0,0.0,0.0,0.0,0.0
1704780533636033816,9100,1704780533635623141,imu_link,0.0013589456543525776,0.00023900608674309344,-0.9891179665498904,-0.14711813073516472,0.0,0.0,0.0,0.0,0.0,0.0,0.0,0.0,0.0,-0.006108652381980153,-0.024783675378319478,0.0879645943005142,0.0,0.0,0.0,0.0,0.0,0.0,0.0,0.0,0.0,0.034323275,-0.289296175,10.078294205,0.0,0.0,0.0,0.0,0.0,0.0,0.0,0.0,0.0
1704780533736053465,9101,1704780533735725250,imu_link,9.778382495494604e-05,-0.000543190271618571,-0.9897012615691075,-0.14314715586126533,0.0,0.0,0.0,0.0,0.0,0.0,0.0,0.0,0.0,0.02565634000431664,-0.013439035240356337,0.07522369076095559,0.0,0.0,0.0,0.0,0.0,0.0,0.0,0.0,0.0,0.04511059,-0.08433718999999999,10.058680905,0.0,0.0,0.0,0.0,0.0,0.0,0.0,0.0,0.0
1704780533835287419,9102,1704780533834980174,imu_link,-0.00019504603960000154,-0.001382572662442116,-0.9901941110548025,-0.1396913486307048,0.0,0.0,0.0,0.0,0.0,0.0,0.0,0.0,0.0,0.005235987755982988,0.0008726646259971648,0.06684611035138281,0.0,0.0,0.0,0.0,0.0,0.0,0.0,0.0,0.0,0.08433718999999999,0.27850886,9.366331415,0.0,0.0,0.0,0.0,0.0,0.0,0.0,0.0,0.0
1704780533935587208,9103,1704780533935157813,imu_link,-0.00030734600051679153,-0.0003097164622796214,-0.9904853743878487,-0.13761734170486017,0.0,0.0,0.0,0.0,0.0,0.0,0.0,0.0,0.0,-0.01815142422074103,-0.0054105206811824215,0.012566370614359173,0.0,0.0,0.0,0.0,0.0,0.0,0.0,0.0,0.0,0.033342609999999995,-0.47660318999999995,10.119482135,0.0,0.0,0.0,0.0,0.0,0.0,0.0,0.0,0.0
1704780534035675044,9104,1704780534035278667,imu_link,-0.00021862128601348585,-0.0009387692043124066,-0.9904729950837837,-0.13770372880526172,0.0,0.0,0.0,0.0,0.0,0.0,0.0,0.0,0.0,0.03682644721708035,0.005934119456780722,0.0017453292519943296,0.0,0.0,0.0,0.0,0.0,0.0,0.0,0.0,0.0,-0.0196133,-0.042168594999999996,9.478127225,0.0,0.0,0.0,0.0,0.0,0.0,0.0,0.0,0.0
1704780534135745443,9105,1704780534135433869,imu_link,-0.0003134761462936953,-0.001630496190677336,-0.9905799384536202,-0.1369256321807555,0.0,0.0,0.0,0.0,0.0,0.0,0.0,0.0,0.0,0.007330382858376183,-0.0041887902047863905,0.021467549799530253,0.0,0.0,0.0,0.0,0.0,0.0,0.0,0.0,0.0,0.0058839899999999995,0.46875787,10.18322536,0.0,0.0,0.0,0.0,0.0,0.0,0.0,0.0,0.0
1704780534234964298,9106,1704780534234647789,imu_link,-0.0009836751015887026,-0.0007452978084781626,-0.9906283666094199,-0.13657934025036064,0.0,0.0,0.0,0.0,0.0,0.0,0.0,0.0,0.0,-0.017453292519943295,-0.01780235837034216,-0.0010471975511965976,0.0,0.0,0.0,0.0,0.0,0.0,0.0,0.0,0.0,0.12356378999999999,-0.10787314999999999,9.73408079,0.0,0.0,0.0,0.0,0.0,0.0,0.0,0.0,0.0
1704780534335199445,9107,1704780534334779853,imu_link,-0.00014611638485477534,-0.0004202990680639629,-0.9906050727509684,-0.1367530322835435,0.0,0.0,0.0,0.0,0.0,0.0,0.0,0.0,0.0,0.013264502315156903,0.01937315469713706,-0.0005235987755982988,0.0,0.0,0.0,0.0,0.0,0.0,0.0,0.0,0.0,-0.142196425,-0.24712757999999999,9.991015019999999,0.0,0.0,0.0,0.0,0.0,0.0,0.0,0.0,0.0
1704780534435440805,9108,1704780534435072123,imu_link,5.347606844309814e-05,-0.0008883385324535492,-0.9905928154853677,-0.13683962110344344,0.0,0.0,0.0,0.0,0.0,0.0,0.0,0.0,0.0,-0.012391837689159739,0.006981317007977318,-0.00715584993317675,0.0,0.0,0.0,0.0,0.0,0.0,0.0,0.0,0.0,-0.016671304999999997,0.45797055499999995,10.231277944999999,0.0,0.0,0.0,0.0,0.0,0.0,0.0,0.0,0.0
1704780534535532864,9109,1704780534535231039,imu_link,0.000357743953480537,3.8492259092434814e-05,-0.9905213882159138,-0.1373581086955867,0.0,0.0,0.0,0.0,0.0,0.0,0.0,0.0,0.0,-0.032812189937493394,-0.009599310885968814,-0.009599310885968814,0.0,0.0,0.0,0.0,0.0,0.0,0.0,0.0,0.0,0.028439284999999995,-0.09022118,9.258458265,0.0,0.0,0.0,0.0,0.0,0.0,0.0,0.0,0.0
1704780534635712114,9110,1704780534635352619,imu_link,0.0001057140589300354,0.0013949874793884323,-0.9904844700581256,-0.13761743133827326,0.0,0.0,0.0,0.0,0.0,0.0,0.0,0.0,0.0,-0.012217304763960306,-0.0013962634015954637,-0.0013962634015954637,0.0,0.0,0.0,0.0,0.0,0.0,0.0,0.0,0.0,0.046091255,-0.10983448,10.17734137,0.0,0.0,0.0,0.0,0.0,0.0,0.0,0.0,0.0
1704780534735770129,9111,1704780534735305381,imu_link,0.0003530129299087404,0.001272523276093199,-0.9904846238685143,-0.13761709903362554,0.0,0.0,0.0,0.0,0.0,0.0,0.0,0.0,0.0,0.00017453292519943296,0.0017453292519943296,-0.004537856055185257,0.0,0.0,0.0,0.0,0.0,0.0,0.0,0.0,0.0,-0.05491724,0.08924051499999999,9.738984115,0.0,0.0,0.0,0.0,0.0,0.0,0.0,0.0,0.0
1704780534835272834,9112,1704780534834934251,imu_link,-0.00017580206317914,0.0006409280735187137,-0.9906049249714522,-0.13675321176170865,0.0,0.0,0.0,0.0,0.0,0.0,0.0,0.0,0.0,0.007330382858376183,-0.006981317007977318,0.0486946861306418,0.0,0.0,0.0,0.0,0.0,0.0,0.0,0.0,0.0,0.022555295,0.54721107,9.786056035,0.0,0.0,0.0,0.0,0.0,0.0,0.0,0.0,0.0
1704780534935272032,9113,1704780534934905893,imu_link,-4.042732113026932e-05,0.00035753044900840804,-0.9912500772141416,-0.13199679905424974,0.0,0.0,0.0,0.0,0.0,0.0,0.0,0.0,0.0,-0.012566370614359173,-0.0020943951023931952,0.1244419756671957,0.0,0.0,0.0,0.0,0.0,0.0,0.0,0.0,0.0,-0.053936574999999994,0.452086565,9.862547905,0.0,0.0,0.0,0.0,0.0,0.0,0.0,0.0,0.0
1704780535035367944,9114,1704780535035067413,imu_link,0.0001854840836915773,0.0007681544477869602,-0.9920376508244899,-0.12593917135278582,0.0,0.0,0.0,0.0,0.0,0.0,0.0,0.0,0.0,-0.0005235987755982988,0.01291543646475804,0.1054178868204575,0.0,0.0,0.0,0.0,0.0,0.0,0.0,0.0,0.0,0.006864655,-0.18534568499999998,9.83999261,0.0,0.0,0.0,0.0,0.0,0.0,0.0,0.0,0.0
1704780535135288301,9115,1704780535135080260,imu_link,0.0009845810929149188,0.00014354901770973697,-0.9926305210624016,-0.12117614719546091,0.0,0.0,0.0,0.0,0.0,0.0,0.0,0.0,0.0,0.01884955592153876,0.010122909661567111,0.10471975511965977,0.0,0.0,0.0,0.0,0.0,0.0,0.0,0.0,0.0,-0.0588399,0.16082906,9.703680175,0.0,0.0,0.0,0.0,0.0,0.0,0.0,0.0,0.0
1704780535234926084,9116,1704780535234472781,imu_link,0.0008103131360554741,0.00016965147496515308,-0.9933523776784516,-0.11511024442492256,0.0,0.0,0.0,0.0,0.0,0.0,0.0,0.0,0.0,-0.00471238898038469,-0.0054105206811824215,0.13055062804917586,0.0,0.0,0.0,0.0,0.0,0.0,0.0,0.0,0.0,-0.09414383999999999,0.385401345,10.146940755,0.0,0.0,0.0,0.0,0.0,0.0,0.0,0.0,0.0
1704780535334958452,9117,1704780535334586679,imu_link,0.0009341145989941343,0.0005119853447257538,-0.9940272875299472,-0.10912660970990652,0.0,0.0,0.0,0.0,0.0,0.0,0.0,0.0,0.0,-0.005235987755982988,0.012217304763960306,0.11117747335203879,0.0,0.0,0.0,0.0,0.0,0.0,0.0,0.0,0.0,0.011767979999999999,-0.02941995,9.6301303,0.0,0.0,0.0,0.0,0.0,0.0,0.0,0.0,0.0
1704780535435210940,9118,1704780535434805498,imu_link,0.0012189434303177672,0.0007501509381429955,-0.9945937187791949,-0.10383297171638511,0.0,0.0,0.0,0.0,0.0,0.0,0.0,0.0,0.0,-0.0015707963267948967,0.004537856055185257,0.10576695267085637,0.0,0.0,0.0,0.0,0.0,0.0,0.0,0.0,0.0,0.07453053999999999,0.07943386499999999,9.866470565,0.0,0.0,0.0,0.0,0.0,0.0,0.0,0.0,0.0
1704780535535724734,9119,1704780535535134814,imu_link,0.002013928532613402,0.0008523921863464506,-0.9951052564844463,-0.09879648797629625,0.0,0.0,0.0,0.0,0.0,0.0,0.0,0.0,0.0,-0.004363323129985824,0.01902408884673819,0.09686577348568529,0.0,0.0,0.0,0.0,0.0,0.0,0.0,0.0,0.0,-0.03138128,0.22457228499999998,9.807630665,0.0,0.0,0.0,0.0,0.0,0.0,0.0,0.0,0.0
1704780535635659332,9120,1704780535635204731,imu_link,0.002460187261957736,0.0009958557163074373,-0.9956078587492206,-0.09358390538346033,0.0,0.0,0.0,0.0,0.0,0.0,0.0,0.0,0.0,-0.008028514559173916,-0.0015707963267948967,0.1153662635568252,0.0,0.0,0.0,0.0,0.0,0.0,0.0,0.0,0.0,-0.11571846999999999,0.31185147,9.76153941,0.0,0.0,0.0,0.0,0.0,0.0,0.0,0.0,0.0
1704780535735621650,9121,1704780535735289440,imu_link,0.0023181192711241847,0.001461200247270935,-0.9961760491320257,-0.0873256568975563,0.0,0.0,0.0,0.0,0.0,0.0,0.0,0.0,0.0,-0.011344640137963142,-0.0038397243543875246,0.12618730491919003,0.0,0.0,0.0,0.0,0.0,0.0,0.0,0.0,0.0,-0.034323275,0.05099458,9.945904429999999,0.0,0.0,0.0,0.0,0.0,0.0,0.0,0.0,0.0
1704780535835120897,9122,1704780535834764567,imu_link,0.002323904661162802,0.001648477440372605,-0.9966622016618077,-0.08158638224540093,0.0,0.0,0.0,0.0,0.0,0.0,0.0,0.0,0.0,-0.003316125578789226,0.004537856055185257,0.10978120995044333,0.0,0.0,0.0,0.0,0.0,0.0,0.0,0.0,0.0,0.034323275,-0.02549729,9.73015813,0.0,0.0,0.0,0.0,0.0,0.0,0.0,0.0,0.0
1704780535935003536,9123,1704780535934630092,imu_link,0.0024691498265562973,0.0013864749595012276,-0.9970824220561639,-0.07627990962851598,0.0,0.0,0.0,0.0,0.0,0.0,0.0,0.0,0.0,0.009599310885968814,-0.00942477796076938,0.10332349171806432,0.0,0.0,0.0,0.0,0.0,0.0,0.0,0.0,0.0,-0.18240368999999998,0.047071919999999996,9.83999261,0.0,0.0,0.0,0.0,0.0,0.0,0.0,0.0,0.0
1704780536035306699,9124,1704780536034922079,imu_link,0.0020401507776452816,0.00160305953367309,-0.9974189162841617,-0.07175495399945954,0.0,0.0,0.0,0.0,0.0,0.0,0.0,0.0,0.0,-0.003316125578789226,0.00017453292519943296,0.0762708883121522,0.0,0.0,0.0,0.0,0.0,0.0,0.0,0.0,0.0,-0.095124505,-0.132389775,9.784094705,0.0,0.0,0.0,0.0,0.0,0.0,0.0,0.0,0.0
1704780536135436478,9125,1704780536134956141,imu_link,0.0017069762965628097,0.0018926624932194959,-0.9975610240242115,-0.06975318923444518,0.0,0.0,0.0,0.0,0.0,0.0,0.0,0.0,0.0,0.008028514559173916,-0.015707963267948967,0.012566370614359173,0.0,0.0,0.0,0.0,0.0,0.0,0.0,0.0,0.0,0.00784532,-0.43835725499999995,9.840973275,0.0,0.0,0.0,0.0,0.0,0.0,0.0,0.0,0.0
1704780536234624084,9126,1704780536234208800,imu_link,0.001129068895466702,0.001146493349100273,-0.9976113107067724,-0.06905855129052092,0.0,0.0,0.0,0.0,0.0,0.0,0.0,0.0,0.0,0.017453292519943295,-0.012566370614359173,0.023736477827122886,0.0,0.0,0.0,0.0,0.0,0.0,0.0,0.0,0.0,-0.059820565,0.21868829499999998,9.810572659999998,0.0,0.0,0.0,0.0,0.0,0.0,0.0,0.0,0.0
1704780536335216446,9127,1704780536334753679,imu_link,0.0004996395592540932,0.0009285544124548397,-0.9977544294358205,-0.06697004321496453,0.0,0.0,0.0,0.0,0.0,0.0,0.0,0.0,0.0,-0.0024434609527920616,-0.006283185307179587,0.057246799465414,0.0,0.0,0.0,0.0,0.0,0.0,0.0,0.0,0.0,-0.08433718999999999,0.37461402999999993,9.96159507,0.0,0.0,0.0,0.0,0.0,0.0,0.0,0.0,0.0
1704780536434869943,9128,1704780536434538455,imu_link,0.00044330994417879523,0.0014581432663398715,-0.9979481473879519,-0.06400915887170218,0.0,0.0,0.0,0.0,0.0,0.0,0.0,0.0,0.0,-0.006981317007977318,-0.00017453292519943296,0.05550147021341968,0.0,0.0,0.0,0.0,0.0,0.0,0.0,0.0,0.0,0.08629852,-0.13140911,9.7085835,0.0,0.0,0.0,0.0,0.0,0.0,0.0,0.0,0.0
1704780536535144602,9129,1704780536534704727,imu_link,0.0003577473885314207,0.0015517585371067992,-0.9981121802159454,-0.061396577810335584,0.0,0.0,0.0,0.0,0.0,0.0,0.0,0.0,0.0,0.003490658503988659,0.0019198621771937623,0.05881759579220891,0.0,0.0,0.0,0.0,0.0,0.0,0.0,0.0,0.0,0.022555295,0.16671305,9.901774505,0.0,0.0,0.0,0.0,0.0,0.0,0.0,0.0,0.0
1704780536635300124,9130,1704780536634936671,imu_link,0.0005166996135766758,0.0013685601060336632,-0.9983105020464517,-0.05808615642738713,0.0,0.0,0.0,0.0,0.0,0.0,0.0,0.0,0.0,-0.0005235987755982988,0.005585053606381855,0.07033676885537149,0.0,0.0,0.0,0.0,0.0,0.0,0.0,0.0,0.0,-0.32165812,0.097085835,9.764481405,0.0,0.0,0.0,0.0,0.0,0.0,0.0,0.0,0.0
1704780536735642845,9131,1704780536735134089,imu_link,0.0009624556180045845,0.0016076032064465196,-0.9984874226968365,-0.054948667020615974,0.0,0.0,0.0,0.0,0.0,0.0,0.0,0.0,0.0,-0.010471975511965976,0.017627825445142728,0.05619960191421742,0.0,0.0,0.0,0.0,0.0,0.0,0.0,0.0,0.0,-1.166010685,0.028439284999999995,9.77330739,0.0,0.0,0.0,0.0,0.0,0.0,0.0,0.0,0.0
1704780536834662809,9132,1704780536834236236,imu_link,0.0019357901307181168,0.001907787398617456,-0.9986077145127501,-0.05268059964952469,0.0,0.0,0.0,0.0,0.0,0.0,0.0,0.0,0.0,-0.00471238898038469,-0.01902408884673819,0.032114058236695664,0.0,0.0,0.0,0.0,0.0,0.0,0.0,0.0,0.0,-1.48668814,-0.19907499499999998,10.254813905,0.0,0.0,0.0,0.0,0.0,0.0,0.0,0.0,0.0
1704780536934729421,9133,1704780536934383617,imu_link,0.0006540182886187264,0.0025001958319528627,-0.9986535357498494,-0.051811550982425986,0.0,0.0,0.0,0.0,0.0,0.0,0.0,0.0,0.0,-0.008203047484373348,0.0013962634015954637,0.00645771823237902,0.0,0.0,0.0,0.0,0.0,0.0,0.0,0.0,0.0,-0.601147645,-0.0588399,9.884122535,0.0,0.0,0.0,0.0,0.0,0.0,0.0,0.0,0.0
1704780537034627473,9134,1704780537034216297,imu_link,0.0006625943405547623,0.002674609578792043,-0.9986621112200952,-0.05163714792437082,0.0,0.0,0.0,0.0,0.0,0.0,0.0,0.0,0.0,-0.0006981317007977319,-0.00645771823237902,0.0020943951023931952,0.0,0.0,0.0,0.0,0.0,0.0,0.0,0.0,0.0,-0.36284605,-0.138273765,9.832147289999998,0.0,0.0,0.0,0.0,0.0,0.0,0.0,0.0,0.0
1704780537135471745,9135,1704780537134848608,imu_link,0.0004011452434486767,0.002688128800660617,-0.9986621773185674,-0.05163786052290437,0.0,0.0,0.0,0.0,0.0,0.0,0.0,0.0,0.0,-0.0008726646259971648,-0.008377580409572781,-0.0020943951023931952,0.0,0.0,0.0,0.0,0.0,0.0,0.0,0.0,0.0,-0.08139519499999999,-0.000980665,9.92236847,0.0,0.0,0.0,0.0,0.0,0.0,0.0,0.0,0.0
1704780537234202882,9136,1704780537233865548,imu_link,-0.0005434586921286522,0.0029992413618362473,-0.9986520554772144,-0.051814875229400155,0.0,0.0,0.0,0.0,0.0,0.0,0.0,0.0,0.0,-0.0041887902047863905,-0.007330382858376183,-0.004014257279586958,0.0,0.0,0.0,0.0,0.0,0.0,0.0,0.0,0.0,0.401091985,-0.075511205,9.747810099999999,0.0,0.0,0.0,0.0,0.0,0.0,0.0,0.0,0.0
1704780537334017379,9137,1704780537333644113,imu_link,-0.00011626850421122176,0.0028023570028995214,-0.9986437781702976,-0.051987860108074595,0.0,0.0,0.0,0.0,0.0,0.0,0.0,0.0,0.0,0.014835298641951801,0.005759586531581288,-0.0038397243543875246,0.0,0.0,0.0,0.0,0.0,0.0,0.0,0.0,0.0,0.18240368999999998,-0.179461695,9.817437315000001,0.0,0.0,0.0,0.0,0.0,0.0,0.0,0.0,0.0
1704780537434949584,9138,1704780537434551343,imu_link,-0.0004962332683263933,0.0022105530646222573,-0.9986360236427358,-0.05216281712788134,0.0,0.0,0.0,0.0,0.0,0.0,0.0,0.0,0.0,0.008203047484373348,-0.006632251157578452,-0.0020943951023931952,0.0,0.0,0.0,0.0,0.0,0.0,0.0,0.0,0.0,0.13925443,0.140235095,9.905697165,0.0,0.0,0.0,0.0,0.0,0.0,0.0,0.0,0.0
1704780537534698676,9139,1704780537534365750,imu_link,-0.000500600042962878,0.0021234492218224978,-0.9986316571592746,-0.05224991562022314,0.0,0.0,0.0,0.0,0.0,0.0,0.0,0.0,0.0,-0.004363323129985824,-0.006806784082777885,-0.0036651914291880917,0.0,0.0,0.0,0.0,0.0,0.0,0.0,0.0,0.0,0.230456275,-0.05491724,9.680144214999999,0.0,0.0,0.0,0.0,0.0,0.0,0.0,0.0,0.0
1704780537634399735,9140,1704780537634104938,imu_link,-0.001096739104772981,0.0024169015924656633,-0.9986258695215894,-0.052338594481301036,0.0,0.0,0.0,0.0,0.0,0.0,0.0,0.0,0.0,-0.0008726646259971648,-0.009948376736367677,-0.0012217304763960308,0.0,0.0,0.0,0.0,0.0,0.0,0.0,0.0,0.0,0.430511935,-0.087279185,9.96159507,0.0,0.0,0.0,0.0,0.0,0.0,0.0,0.0,0.0
1704780537736736110,9141,1704780537736350367,imu_link,-0.0010231069849029944,0.002150984172847906,-0.9986220093854028,-0.05242526957723895,0.0,0.0,0.0,0.0,0.0,0.0,0.0,0.0,0.0,0.011693705988362009,0.00715584993317675,-0.004014257279586958,0.0,0.0,0.0,0.0,0.0,0.0,0.0,0.0,0.0,0.5079844699999999,-0.0029419949999999998,9.737022784999999,0.0,0.0,0.0,0.0,0.0,0.0,0.0,0.0,0.0
1704780537834611449,9142,1704780537834275066,imu_link,-0.0010470292497153607,0.001714613815089165,-0.9986546891343484,-0.051814821230932125,0.0,0.0,0.0,0.0,0.0,0.0,0.0,0.0,0.0,0.005934119456780722,-0.0036651914291880917,0.03682644721708035,0.0,0.0,0.0,0.0,0.0,0.0,0.0,0.0,0.0,0.585457005,0.40991796999999996,10.005724995,0.0,0.0,0.0,0.0,0.0,0.0,0.0,0.0,0.0
1704780537935133017,9143,1704780537934468619,imu_link,-0.0009436343906233838,0.002143047056215033,-0.9988032958335316,-0.04885174649412611,0.0,0.0,0.0,0.0,0.0,0.0,0.0,0.0,0.0,-0.008552113334772213,0.0006981317007977319,0.07033676885537149,0.0,0.0,0.0,0.0,0.0,0.0,0.0,0.0,0.0,0.52759777,0.006864655,9.97728571,0.0,0.0,0.0,0.0,0.0,0.0,0.0,0.0,0.0
1704780538033856279,9144,1704780538033479816,imu_link,-0.0009421813377177542,0.0023145045117712788,-0.9989474487226881,-0.0458012014430231,0.0,0.0,0.0,0.0,0.0,0.0,0.0,0.0,0.0,0.010821041362364843,-0.0015707963267948967,0.05270894341022875,0.0,0.0,0.0,0.0,0.0,0.0,0.0,0.0,0.0,0.53544309,-0.10395048999999999,9.814495319999999,0.0,0.0,0.0,0.0,0.0,0.0,0.0,0.0,0.0
1704780538134152427,9145,1704780538133823429,imu_link,-0.0005237966719137325,0.0020315881552640273,-0.9990686707944917,-0.04309743987223953,0.0,0.0,0.0,0.0,0.0,0.0,0.0,0.0,0.0,0.005759586531581288,0.013264502315156903,0.060562925044203235,0.0,0.0,0.0,0.0,0.0,0.0,0.0,0.0,0.0,0.392266,0.16573238499999998,9.747810099999999,0.0,0.0,0.0,0.0,0.0,0.0,0.0,0.0,0.0
1704780538234473029,9146,1704780538234115998,imu_link,-0.0002515803578702809,0.002455410863007358,-0.9992052655676409,-0.03978372690834045,0.0,0.0,0.0,0.0,0.0,0.0,0.0,0.0,0.0,-0.010471975511965976,-0.0020943951023931952,0.06824237375297829,0.0,0.0,0.0,0.0,0.0,0.0,0.0,0.0,0.0,0.316754795,0.08825984999999999,9.886083865,0.0,0.0,0.0,0.0,0.0,0.0,0.0,0.0,0.0
1704780538334616234,9147,1704780538334161077,imu_link,-0.0001629655790472001,0.002713005008349302,-0.9993310589884367,-0.03646981748095832,0.0,0.0,0.0,0.0,0.0,0.0,0.0,0.0,0.0,0.005759586531581288,0.00471238898038469,0.06702064327658225,0.0,0.0,0.0,0.0,0.0,0.0,0.0,0.0,0.0,0.14513842,-0.17651969999999997,9.948846425,0.0,0.0,0.0,0.0,0.0,0.0,0.0,0.0,0.0
1704780538434929430,9148,1704780538434525527,imu_link,-0.0003508527148989826,0.0025439836504266653,-0.9994293901061474,-0.0336793592815111,0.0,0.0,0.0,0.0,0.0,0.0,0.0,0.0,0.0,0.0006981317007977319,-0.005759586531581288,0.03665191429188092,0.0,0.0,0.0,0.0,0.0,0.0,0.0,0.0,0.0,-0.06668521999999999,-0.04511059,9.835089284999999,0.0,0.0,0.0,0.0,0.0,0.0,0.0,0.0,0.0
1704780538534923715,9149,1704780538534440720,imu_link,-0.00017841260103015097,0.0025379665057151273,-0.9994556074224018,-0.03289400685349216,0.0,0.0,0.0,0.0,0.0,0.0,0.0,0.0,0.0,-0.0041887902047863905,0.006632251157578452,0.0020943951023931952,0.0,0.0,0.0,0.0,0.0,0.0,0.0,0.0,0.0,-0.04314926,-0.18044236,9.766442735,0.0,0.0,0.0,0.0,0.0,0.0,0.0,0.0,0.0
1704780538633729430,9150,1704780538633388547,imu_link,-0.00044601764381366926,0.0023721009122848317,-0.9994587787317263,-0.03280737450040033,0.0,0.0,0.0,0.0,0.0,0.0,0.0,0.0,0.0,0.00017453292519943296,-0.011344640137963142,0.002967059728390361,0.0,0.0,0.0,0.0,0.0,0.0,0.0,0.0,0.0,-0.16867437999999998,-0.00196133,9.993957014999998,0.0,0.0,0.0,0.0,0.0,0.0,0.0,0.0,0.0
1704780538734626045,9151,1704780538734121624,imu_link,-0.00036186051704673765,0.0022819874630445663,-0.9994618892736098,-0.032719924813657944,0.0,0.0,0.0,0.0,0.0,0.0,0.0,0.0,0.0,-0.005585053606381855,0.005759586531581288,-0.0012217304763960308,0.0,0.0,0.0,0.0,0.0,0.0,0.0,0.0,0.0,-0.11081514499999999,0.010787315,9.759578079999999,0.0,0.0,0.0,0.0,0.0,0.0,0.0,0.0,0.0
1704780538834461293,9152,1704780538834024299,imu_link,-0.000879250759655651,0.0024736338135654175,-0.99945820946346,-0.03280846826586912,0.0,0.0,0.0,0.0,0.0,0.0,0.0,0.0,0.0,0.0005235987755982988,-0.014835298641951801,-0.0019198621771937623,0.0,0.0,0.0,0.0,0.0,0.0,0.0,0.0,0.0,-0.022555295,-0.21574629999999997,9.96159507,0.0,0.0,0.0,0.0,0.0,0.0,0.0,0.0,0.0
1704780538934453178,9153,1704780538934035073,imu_link,-0.0008928548238856212,0.0020378494534930808,-0.9994476812752175,-0.03315693552576679,0.0,0.0,0.0,0.0,0.0,0.0,0.0,0.0,0.0,0.015009831567151233,0.005759586531581288,-0.009250245035569947,0.0,0.0,0.0,0.0,0.0,0.0,0.0,0.0,0.0,0.008825985,-0.048052584999999995,9.661511579999999,0.0,0.0,0.0,0.0,0.0,0.0,0.0,0.0,0.0
1704780539033698535,9154,1704780539033351763,imu_link,-0.0003717636199314107,0.0019334018572782637,-0.9994366202089177,-0.03350471510764717,0.0,0.0,0.0,0.0,0.0,0.0,0.0,0.0,0.0,-0.009075712110370514,0.02181661564992912,-0.004014257279586958,0.0,0.0,0.0,0.0,0.0,0.0,0.0,0.0,0.0,0.01569064,0.18240368999999998,9.911581154999999,0.0,0.0,0.0,0.0,0.0,0.0,0.0,0.0,0.0
1704780539133961312,9155,1704780539133564783,imu_link,0.00017244734767681916,0.002526349987109657,-0.9994295260659107,-0.033678038026642904,0.0,0.0,0.0,0.0,0.0,0.0,0.0,0.0,0.0,-0.007330382858376183,-0.004014257279586958,-0.004537856055185257,0.0,0.0,0.0,0.0,0.0,0.0,0.0,0.0,0.0,-0.0029419949999999998,-0.25399223499999996,9.829205295,0.0,0.0,0.0,0.0,0.0,0.0,0.0,0.0,0.0
1704780539234560487,9156,1704780539234171472,imu_link,0.00035050287501577597,0.002607596956248929,-0.9994204281669752,-0.03393943647717887,0.0,0.0,0.0,0.0,0.0,0.0,0.0,0.0,0.0,0.00017453292519943296,0.014486232791552934,-0.005235987755982988,0.0,0.0,0.0,0.0,0.0,0.0,0.0,0.0,0.0,0.01372931,0.06472388999999999,9.764481405,0.0,0.0,0.0,0.0,0.0,0.0,0.0,0.0,0.0
1704780539334786343,9157,1704780539334388642,imu_link,0.0005402734114878834,0.003037658026829865,-0.9994132141637219,-0.03411316598164349,0.0,0.0,0.0,0.0,0.0,0.0,0.0,0.0,0.0,-0.01815142422074103,-0.01064650843716541,-0.0020943951023931952,0.0,0.0,0.0,0.0,0.0,0.0,0.0,0.0,0.0,-0.06668521999999999,0.10198916,9.817437315000001,0.0,0.0,0.0,0.0,0.0,0.0,0.0,0.0,0.0
1704780539434620751,9158,1704780539434231941,imu_link,0.0002997857547407971,0.0036570694458991815,-0.9994082386607896,-0.03420100098691812,0.0,0.0,0.0,0.0,0.0,0.0,0.0,0.0,0.0,-0.005759586531581288,0.005585053606381855,-0.0022689280275926286,0.0,0.0,0.0,0.0,0.0,0.0,0.0,0.0,0.0,0.05687856999999999,-0.32460011499999997,9.886083865,0.0,0.0,0.0,0.0,0.0,0.0,0.0,0.0,0.0
1704780539534770311,9159,1704780539534188163,imu_link,0.0005470681255903145,0.003211945340135802,-0.9994037042829325,-0.03437469984088419,0.0,0.0,0.0,0.0,0.0,0.0,0.0,0.0,0.0,0.013788101090755204,0.00017453292519943296,-0.0027925268031909274,0.0,0.0,0.0,0.0,0.0,0.0,0.0,0.0,0.0,-0.09610516999999999,0.016671304999999997,9.889025859999999,0.0,0.0,0.0,0.0,0.0,0.0,0.0,0.0,0.0
1704780539634050080,9160,1704780539633703730,imu_link,0.0004340973665663902,0.002517532895541585,-0.9994294912960675,-0.03367737393681095,0.0,0.0,0.0,0.0,0.0,0.0,0.0,0.0,0.0,-0.0010471975511965976,-0.004537856055185257,0.03089232776029963,0.0,0.0,0.0,0.0,0.0,0.0,0.0,0.0,0.0,-0.12944777999999998,0.405014645,9.654646925,0.0,0.0,0.0,0.0,0.0,0.0,0.0,0.0,0.0
1704780539734145260,9161,1704780539733541644,imu_link,-0.0005165822142461577,0.002984913643034387,-0.9994936593028119,-0.03167409741151641,0.0,0.0,0.0,0.0,0.0,0.0,0.0,0.0,0.0,-0.006283185307179587,-0.024260076602721177,0.03944444109507184,0.0,0.0,0.0,0.0,0.0,0.0,0.0,0.0,0.0,-0.02941995,-0.17259704,9.982189035,0.0,0.0,0.0,0.0,0.0,0.0,0.0,0.0,0.0
1704780539834573161,9162,1704780539834201215,imu_link,-0.001143290526656463,0.002653180570489893,-0.9995529973394193,-0.029756663613630475,0.0,0.0,0.0,0.0,0.0,0.0,0.0,0.0,0.0,0.020943951023931952,-0.006108652381980153,0.0439822971502571,0.0,0.0,0.0,0.0,0.0,0.0,0.0,0.0,0.0,0.03138128,-0.014709975,9.75565542,0.0,0.0,0.0,0.0,0.0,0.0,0.0,0.0,0.0
1704780539934201658,9163,1704780539933879699,imu_link,-0.00194501490180619,0.0023223827307494753,-0.9996293896668459,-0.02705377551789888,0.0,0.0,0.0,0.0,0.0,0.0,0.0,0.0,0.0,0.0036651914291880917,-0.017627825445142728,0.059341194567807204,0.0,0.0,0.0,0.0,0.0,0.0,0.0,0.0,0.0,0.02941995,0.32460011499999997,9.844895935,0.0,0.0,0.0,0.0,0.0,0.0,0.0,0.0,0.0
1704780540033835579,9164,1704780540033344873,imu_link,-0.0020257809963213757,0.0028426769443274185,-0.9996973859435736,-0.024350604442820143,0.0,0.0,0.0,0.0,0.0,0.0,0.0,0.0,0.0,-0.00034906585039886593,-0.0006981317007977319,0.0486946861306418,0.0,0.0,0.0,0.0,0.0,0.0,0.0,0.0,0.0,0.01372931,-0.20005566,9.907658495,0.0,0.0,0.0,0.0,0.0,0.0,0.0,0.0,0.0
1704780540133610238,9165,1704780540133240697,imu_link,-0.00229254358772595,0.002930696193909192,-0.9997530476657934,-0.021908878261454618,0.0,0.0,0.0,0.0,0.0,0.0,0.0,0.0,0.0,0.011868238913561443,0.0036651914291880917,0.05270894341022875,0.0,0.0,0.0,0.0,0.0,0.0,0.0,0.0,0.0,0.20986230999999997,0.011767979999999999,9.738984115,0.0,0.0,0.0,0.0,0.0,0.0,0.0,0.0,0.0
1704780540234844462,9166,1704780540234424992,imu_link,-0.0019517191191084496,0.0029176141314411633,-0.9998111125276986,-0.019115898785709146,0.0,0.0,0.0,0.0,0.0,0.0,0.0,0.0,0.0,-0.0038397243543875246,-0.004014257279586958,0.0582939970166106,0.0,0.0,0.0,0.0,0.0,0.0,0.0,0.0,0.0,-0.023535959999999998,0.12552512,9.944923764999999,0.0,0.0,0.0,0.0,0.0,0.0,0.0,0.0,0.0
1704780540334580837,9167,1704780540333962007,imu_link,-0.0022094947218677568,0.0035285522012985997,-0.9998478980181024,-0.016936595915910683,0.0,0.0,0.0,0.0,0.0,0.0,0.0,0.0,0.0,-0.002967059728390361,0.0005235987755982988,0.028623399732707,0.0,0.0,0.0,0.0,0.0,0.0,0.0,0.0,0.0,0.037265269999999996,-0.25203090499999997,9.872354555,0.0,0.0,0.0,0.0,0.0,0.0,0.0,0.0,0.0
1704780540433945871,9168,1704780540433532583,imu_link,-0.0021248621416727767,0.0036119207473475526,-0.9998663550719746,-0.015802246184560075,0.0,0.0,0.0,0.0,0.0,0.0,0.0,0.0,0.0,0.0020943951023931952,0.0006981317007977319,0.023561944901923447,0.0,0.0,0.0,0.0,0.0,0.0,0.0,0.0,0.0,0.179461695,-0.059820565,9.722312809999998,0.0,0.0,0.0,0.0,0.0,0.0,0.0,0.0,0.0
1704780540534348163,9169,1704780540534020258,imu_link,-0.001869697046115713,0.0035177630263539803,-0.999889557628256,-0.014317895174094222,0.0,0.0,0.0,0.0,0.0,0.0,0.0,0.0,0.0,-0.0017453292519943296,0.006806784082777885,0.03368485456349056,0.0,0.0,0.0,0.0,0.0,0.0,0.0,0.0,0.0,0.08531785499999998,0.0058839899999999995,9.919426475,0.0,0.0,0.0,0.0,0.0,0.0,0.0,0.0,0.0
1704780540633427385,9170,1704780540633085380,imu_link,-0.001697513450673137,0.0036875608211422778,-0.9999071445062788,-0.013008562894307083,0.0,0.0,0.0,0.0,0.0,0.0,0.0,0.0,0.0,-0.00471238898038469,-0.0008726646259971648,0.01884955592153876,0.0,0.0,0.0,0.0,0.0,0.0,0.0,0.0,0.0,-0.11081514499999999,-0.042168594999999996,9.874315884999998,0.0,0.0,0.0,0.0,0.0,0.0,0.0,0.0,0.0
1704780540733522651,9171,1704780540733047830,imu_link,-0.001789677232897794,0.0035995646238466605,-0.9999203760234487,-0.011961680611251701,0.0,0.0,0.0,0.0,0.0,0.0,0.0,0.0,0.0,0.008377580409572781,0.0036651914291880917,0.023387411976724018,0.0,0.0,0.0,0.0,0.0,0.0,0.0,0.0,0.0,0.02745862,-0.18240368999999998,9.70662217,0.0,0.0,0.0,0.0,0.0,0.0,0.0,0.0,0.0
1704780540834043741,9172,1704780540833684619,imu_link,-0.0017118994120150421,0.003073173270903778,-0.9999342589975964,-0.010913417859593266,0.0,0.0,0.0,0.0,0.0,0.0,0.0,0.0,0.0,0.012740903539558606,0.0054105206811824215,0.01780235837034216,0.0,0.0,0.0,0.0,0.0,0.0,0.0,0.0,0.0,-0.32754211,0.07747253500000001,9.969440389999999,0.0,0.0,0.0,0.0,0.0,0.0,0.0,0.0,0.0
1704780540934092565,9173,1704780540933655333,imu_link,-0.0011956215404403203,0.0026300132128950614,-0.9999463116073645,-0.009951252306103808,0.0,0.0,0.0,0.0,0.0,0.0,0.0,0.0,0.0,0.0017453292519943296,0.014137166941154071,0.023038346126325153,0.0,0.0,0.0,0.0,0.0,0.0,0.0,0.0,0.0,-1.116977435,0.06668521999999999,9.63209163,0.0,0.0,0.0,0.0,0.0,0.0,0.0,0.0,0.0
