%time,field.header.seq,field.header.stamp,field.header.frame_id,field.orientation.x,field.orientation.y,field.orientation.z,field.orientation.w,field.orientation_covariance0,field.orientation_covariance1,field.orientation_covariance2,field.orientation_covariance3,field.orientation_covariance4,field.orientation_covariance5,field.orientation_covariance6,field.orientation_covariance7,field.orientation_covariance8,field.angular_velocity.x,field.angular_velocity.y,field.angular_velocity.z,field.angular_velocity_covariance0,field.angular_velocity_covariance1,field.angular_velocity_covariance2,field.angular_velocity_covariance3,field.angular_velocity_covariance4,field.angular_velocity_covariance5,field.angular_velocity_covariance6,field.angular_velocity_covariance7,field.angular_velocity_covariance8,field.linear_acceleration.x,field.linear_acceleration.y,field.linear_acceleration.z,field.linear_acceleration_covariance0,field.linear_acceleration_covariance1,field.linear_acceleration_covariance2,field.linear_acceleration_covariance3,field.linear_acceleration_covariance4,field.linear_acceleration_covariance5,field.linear_acceleration_covariance6,field.linear_acceleration_covariance7,field.linear_acceleration_covariance8
1704780814147479355,11906,1704780814147235139,imu_link,0.004711151202519518,-0.00013825247629465528,-0.999930341469292,-0.010821189846998541,0.0,0.0,0.0,0.0,0.0,0.0,0.0,0.0,0.0,-0.0,-0.00034906585039886593,0.0,0.0,0.0,0.0,0.0,0.0,0.0,0.0,0.0,0.0,-0.09120184499999999,-0.00392266,9.825282634999999,0.0,0.0,0.0,0.0,0.0,0.0,0.0,0.0,0.0
1704780814247239126,11907,1704780814246827512,imu_link,0.004711151202519518,-0.00013825247629465528,-0.999930341469292,-0.010821189846998541,0.0,0.0,0.0,0.0,0.0,0.0,0.0,0.0,0.0,0.00017453292519943296,-0.00034906585039886593,0.00017453292519943296,0.0,0.0,0.0,0.0,0.0,0.0,0.0,0.0,0.0,-0.08825984999999999,0.00392266,9.823321305,0.0,0.0,0.0,0.0,0.0,0.0,0.0,0.0,0.0
1704780814347791692,11908,1704780814347624745,imu_link,0.004711151202519518,-0.00013825247629465528,-0.999930341469292,-0.010821189846998541,0.0,0.0,0.0,0.0,0.0,0.0,0.0,0.0,0.0,0.00017453292519943296,0.0,-0.00034906585039886593,0.0,0.0,0.0,0.0,0.0,0.0,0.0,0.0,0.0,-0.09022118,-0.000980665,9.82430197,0.0,0.0,0.0,0.0,0.0,0.0,0.0,0.0,0.0
1704780814447619973,11909,1704780814447283180,imu_link,0.004711151202519518,-0.00013825247629465528,-0.999930341469292,-0.010821189846998541,0.0,0.0,0.0,0.0,0.0,0.0,0.0,0.0,0.0,0.00034906585039886593,0.00017453292519943296,0.0,0.0,0.0,0.0,0.0,0.0,0.0,0.0,0.0,0.0,-0.087279185,0.000980665,9.82430197,0.0,0.0,0.0,0.0,0.0,0.0,0.0,0.0,0.0
1704780814548295481,11910,1704780814548026717,imu_link,0.004711151202519518,-0.00013825247629465528,-0.999930341469292,-0.010821189846998541,0.0,0.0,0.0,0.0,0.0,0.0,0.0,0.0,0.0,0.00034906585039886593,0.00017453292519943296,0.0005235987755982988,0.0,0.0,0.0,0.0,0.0,0.0,0.0,0.0,0.0,-0.09022118,0.00196133,9.826263299999999,0.0,0.0,0.0,0.0,0.0,0.0,0.0,0.0,0.0
1704780814647729642,11911,1704780814647524994,imu_link,0.004711151202519518,-0.00013825247629465528,-0.999930341469292,-0.010821189846998541,0.0,0.0,0.0,0.0,0.0,0.0,0.0,0.0,0.0,0.00017453292519943296,0.00017453292519943296,0.0,0.0,0.0,0.0,0.0,0.0,0.0,0.0,0.0,0.0,-0.08825984999999999,0.0,9.82430197,0.0,0.0,0.0,0.0,0.0,0.0,0.0,0.0,0.0
1704780814747692255,11912,1704780814747356360,imu_link,0.004711151202519518,-0.00013825247629465528,-0.999930341469292,-0.010821189846998541,0.0,0.0,0.0,0.0,0.0,0.0,0.0,0.0,0.0,0.0005235987755982988,-0.00017453292519943296,0.00017453292519943296,0.0,0.0,0.0,0.0,0.0,0.0,0.0,0.0,0.0,-0.08825984999999999,0.00196133,9.826263299999999,0.0,0.0,0.0,0.0,0.0,0.0,0.0,0.0,0.0
1704780814846920628,11913,1704780814846741326,imu_link,0.004711151202519518,-0.00013825247629465528,-0.999930341469292,-0.010821189846998541,0.0,0.0,0.0,0.0,0.0,0.0,0.0,0.0,0.0,-0.0005235987755982988,0.00017453292519943296,0.00017453292519943296,0.0,0.0,0.0,0.0,0.0,0.0,0.0,0.0,0.0,-0.08825984999999999,0.000980665,9.823321305,0.0,0.0,0.0,0.0,0.0,0.0,0.0,0.0,0.0
1704780814948188066,11914,1704780814947771021,imu_link,0.004711151202519518,-0.00013825247629465528,-0.999930341469292,-0.010821189846998541,0.0,0.0,0.0,0.0,0.0,0.0,0.0,0.0,0.0,0.0,0.00017453292519943296,0.00017453292519943296,0.0,0.0,0.0,0.0,0.0,0.0,0.0,0.0,0.0,-0.08924051499999999,0.0,9.825282634999999,0.0,0.0,0.0,0.0,0.0,0.0,0.0,0.0,0.0
1704780815047481865,11915,1704780815047191013,imu_link,0.004711151202519518,-0.00013825247629465528,-0.999930341469292,-0.010821189846998541,0.0,0.0,0.0,0.0,0.0,0.0,0.0,0.0,0.0,0.0006981317007977319,-0.00034906585039886593,-0.00017453292519943296,0.0,0.0,0.0,0.0,0.0,0.0,0.0,0.0,0.0,-0.09022118,-0.0,9.823321305,0.0,0.0,0.0,0.0,0.0,0.0,0.0,0.0,0.0
1704780815147157911,11916,1704780815146987809,imu_link,0.004623890940533397,-0.00013730822209858092,-0.9999307489514999,-0.010821186640794522,0.0,0.0,0.0,0.0,0.0,0.0,0.0,0.0,0.0,0.0005235987755982988,-0.00017453292519943296,-0.00034906585039886593,0.0,0.0,0.0,0.0,0.0,0.0,0.0,0.0,0.0,-0.08924051499999999,0.000980665,9.826263299999999,0.0,0.0,0.0,0.0,0.0,0.0,0.0,0.0,0.0
1704780815246765346,11917,1704780815246556523,imu_link,0.004622946596271913,-0.00022456863863963623,-0.9999307331616434,-0.01082159011018596,0.0,0.0,0.0,0.0,0.0,0.0,0.0,0.0,0.0,-0.0,0.00034906585039886593,0.00034906585039886593,0.0,0.0,0.0,0.0,0.0,0.0,0.0,0.0,0.0,-0.08825984999999999,0.000980665,9.82234064,0.0,0.0,0.0,0.0,0.0,0.0,0.0,0.0,0.0
1704780815347560914,11918,1704780815347292905,imu_link,0.004622946596271913,-0.00022456863863963623,-0.9999307331616434,-0.01082159011018596,0.0,0.0,0.0,0.0,0.0,0.0,0.0,0.0,0.0,0.00017453292519943296,-0.0,-0.00017453292519943296,0.0,0.0,0.0,0.0,0.0,0.0,0.0,0.0,0.0,-0.08924051499999999,-0.000980665,9.823321305,0.0,0.0,0.0,0.0,0.0,0.0,0.0,0.0,0.0
1704780815447193382,11919,1704780815446882488,imu_link,0.004622946596271913,-0.00022456863863963623,-0.9999307331616434,-0.01082159011018596,0.0,0.0,0.0,0.0,0.0,0.0,0.0,0.0,0.0,0.00017453292519943296,-0.00034906585039886593,-0.0006981317007977319,0.0,0.0,0.0,0.0,0.0,0.0,0.0,0.0,0.0,-0.08924051499999999,0.00196133,9.825282634999999,0.0,0.0,0.0,0.0,0.0,0.0,0.0,0.0,0.0
1704780815547964142,11920,1704780815547758962,imu_link,0.004622946596271913,-0.00022456863863963623,-0.9999307331616434,-0.01082159011018596,0.0,0.0,0.0,0.0,0.0,0.0,0.0,0.0,0.0,0.00017453292519943296,0.0,0.0005235987755982988,0.0,0.0,0.0,0.0,0.0,0.0,0.0,0.0,0.0,-0.08825984999999999,-0.0029419949999999998,9.826263299999999,0.0,0.0,0.0,0.0,0.0,0.0,0.0,0.0,0.0
1704780815647766678,11921,1704780815647304672,imu_link,0.0047102068576459774,-0.0002255128572725852,-0.9999303255970354,-0.01082160093128416,0.0,0.0,0.0,0.0,0.0,0.0,0.0,0.0,0.0,-0.00034906585039886593,-0.0,-0.00017453292519943296,0.0,0.0,0.0,0.0,0.0,0.0,0.0,0.0,0.0,-0.08825984999999999,0.00392266,9.82430197,0.0,0.0,0.0,0.0,0.0,0.0,0.0,0.0,0.0
1704780815747147563,11922,1704780815746906129,imu_link,0.004623890940533397,-0.00013730822209858092,-0.9999307489514999,-0.010821186640794522,0.0,0.0,0.0,0.0,0.0,0.0,0.0,0.0,0.0,-0.00017453292519943296,0.0,0.0005235987755982988,0.0,0.0,0.0,0.0,0.0,0.0,0.0,0.0,0.0,-0.08924051499999999,-0.000980665,9.825282634999999,0.0,0.0,0.0,0.0,0.0,0.0,0.0,0.0,0.0
1704780815846539308,11923,1704780815846319776,imu_link,0.00462391483347633,-0.0001365012474677772,-0.9999326222629732,-0.01064667616284101,0.0,0.0,0.0,0.0,0.0,0.0,0.0,0.0,0.0,-0.002967059728390361,-0.0005235987755982988,0.003490658503988659,0.0,0.0,0.0,0.0,0.0,0.0,0.0,0.0,0.0,-0.08237586,-0.057859234999999995,9.823321305,0.0,0.0,0.0,0.0,0.0,0.0,0.0,0.0,0.0
1704780815947522965,11924,1704780815947293761,imu_link,0.00462391483347633,-0.0001365012474677772,-0.9999326222629732,-0.01064667616284101,0.0,0.0,0.0,0.0,0.0,0.0,0.0,0.0,0.0,-0.00017453292519943296,0.0006981317007977319,-0.0031415926535897933,0.0,0.0,0.0,0.0,0.0,0.0,0.0,0.0,0.0,-0.09904716499999999,-0.024516625,9.82822463,0.0,0.0,0.0,0.0,0.0,0.0,0.0,0.0,0.0
1704780816047840500,11925,1704780816047495896,imu_link,0.004536630643334446,-0.000136363966856848,-0.999931148818824,-0.010821183352182717,0.0,0.0,0.0,0.0,0.0,0.0,0.0,0.0,0.0,-0.0017453292519943296,-0.005585053606381855,-0.0013962634015954637,0.0,0.0,0.0,0.0,0.0,0.0,0.0,0.0,0.0,0.122583125,0.037265269999999996,9.86352857,0.0,0.0,0.0,0.0,0.0,0.0,0.0,0.0,0.0
1704780816146517432,11926,1704780816146300176,imu_link,0.004275785250283853,-4.701685774114619e-05,-0.9999304068788295,-0.010995310320635795,0.0,0.0,0.0,0.0,0.0,0.0,0.0,0.0,0.0,-0.0015707963267948967,-0.00017453292519943296,-0.0027925268031909274,0.0,0.0,0.0,0.0,0.0,0.0,0.0,0.0,0.0,0.289296175,-0.024516625,9.81645665,0.0,0.0,0.0,0.0,0.0,0.0,0.0,0.0,0.0
1704780816246757581,11927,1704780816246262873,imu_link,0.004014000027005146,-4.448855679036634e-05,-0.9999305287378716,-0.011082577432707828,0.0,0.0,0.0,0.0,0.0,0.0,0.0,0.0,0.0,-0.0010471975511965976,-0.005934119456780722,-0.0013962634015954637,0.0,0.0,0.0,0.0,0.0,0.0,0.0,0.0,0.0,0.44227991499999997,-0.023535959999999998,9.757616749999999,0.0,0.0,0.0,0.0,0.0,0.0,0.0,0.0,0.0
1704780816347419697,11928,1704780816347075879,imu_link,0.004189498152128875,3.974076737452802e-05,-0.9999268777756475,-0.011343968783018908,0.0,0.0,0.0,0.0,0.0,0.0,0.0,0.0,0.0,-0.0012217304763960308,-0.00715584993317675,-0.008377580409572781,0.0,0.0,0.0,0.0,0.0,0.0,0.0,0.0,0.0,0.37853669,-0.018632634999999998,9.92825246,0.0,0.0,0.0,0.0,0.0,0.0,0.0,0.0,0.0
1704780816447139442,11929,1704780816446867092,imu_link,0.004016035122916138,0.00012687828197305458,-0.9999215097464569,-0.01186716942490907,0.0,0.0,0.0,0.0,0.0,0.0,0.0,0.0,0.0,-0.0017453292519943296,0.007853981633974483,-0.011693705988362009,0.0,0.0,0.0,0.0,0.0,0.0,0.0,0.0,0.0,0.51190713,-0.050013915,9.916484480000001,0.0,0.0,0.0,0.0,0.0,0.0,0.0,0.0,0.0
1704780816547153795,11930,1704780816546702196,imu_link,0.0037554611610795237,0.0002142958662767321,-0.9999128825979485,-0.012652185716726121,0.0,0.0,0.0,0.0,0.0,0.0,0.0,0.0,0.0,-0.005934119456780722,-0.010821041362364843,-0.02076941809873252,0.0,0.0,0.0,0.0,0.0,0.0,0.0,0.0,0.0,0.50013915,-0.08237586,9.81645665,0.0,0.0,0.0,0.0,0.0,0.0,0.0,0.0,0.0
1704780816647758979,11931,1704780816647340289,imu_link,0.004017546257263765,0.00020502248915973942,-0.9998919946818394,-0.014135637906439274,0.0,0.0,0.0,0.0,0.0,0.0,0.0,0.0,0.0,0.0015707963267948967,-0.00034906585039886593,-0.034208453339088854,0.0,0.0,0.0,0.0,0.0,0.0,0.0,0.0,0.0,0.53740442,-0.10395048999999999,9.82430197,0.0,0.0,0.0,0.0,0.0,0.0,0.0,0.0,0.0
1704780816746891727,11932,1704780816746540810,imu_link,0.003756133523551788,0.00020216875112264744,-0.9998668175428,-0.015880735675102654,0.0,0.0,0.0,0.0,0.0,0.0,0.0,0.0,0.0,-0.0054105206811824215,-0.00471238898038469,-0.03717551306747922,0.0,0.0,0.0,0.0,0.0,0.0,0.0,0.0,0.0,0.505042475,0.05099458,9.789978694999999,0.0,0.0,0.0,0.0,0.0,0.0,0.0,0.0,0.0
1704780816847312901,11933,1704780816846757752,imu_link,0.0037612942058476728,0.00045572806651190755,-0.9998297046982588,-0.01806118990595509,0.0,0.0,0.0,0.0,0.0,0.0,0.0,0.0,0.0,-0.0024434609527920616,-0.004363323129985824,-0.0486946861306418,0.0,0.0,0.0,0.0,0.0,0.0,0.0,0.0,0.0,0.5011198149999999,-0.15886772999999998,9.7085835,0.0,0.0,0.0,0.0,0.0,0.0,0.0,0.0,0.0
1704780816947225060,11934,1704780816946730002,imu_link,0.003500693265087817,0.00045160017797308795,-0.9997817432933349,-0.020591429801816052,0.0,0.0,0.0,0.0,0.0,0.0,0.0,0.0,0.0,0.00942477796076938,0.0019198621771937623,-0.05026548245743669,0.0,0.0,0.0,0.0,0.0,0.0,0.0,0.0,0.0,0.5982056499999999,-0.040207265,9.82037931,0.0,0.0,0.0,0.0,0.0,0.0,0.0,0.0,0.0
1704780817047406863,11935,1704780817047011946,imu_link,0.0035769893731341573,-8.148578210167563e-05,-0.9997342251328425,-0.02277449461846835,0.0,0.0,0.0,0.0,0.0,0.0,0.0,0.0,0.0,0.005585053606381855,-0.0024434609527920616,-0.03577924966588375,0.0,0.0,0.0,0.0,0.0,0.0,0.0,0.0,0.0,0.45895122,0.06080122999999999,9.65562759,0.0,0.0,0.0,0.0,0.0,0.0,0.0,0.0,0.0
1704780817146478250,11936,1704780817146074477,imu_link,0.0034833339040972306,-0.00034578789290746375,-0.9997038108576741,-0.02408396504501547,0.0,0.0,0.0,0.0,0.0,0.0,0.0,0.0,0.0,0.003316125578789226,0.0006981317007977319,-0.023387411976724018,0.0,0.0,0.0,0.0,0.0,0.0,0.0,0.0,0.0,0.44227991499999997,0.006864655,9.73604212,0.0,0.0,0.0,0.0,0.0,0.0,0.0,0.0,0.0
1704780817246785077,11937,1704780817246326521,imu_link,0.0034740754624740717,-0.0006989949946714118,-0.999673459432094,-0.025306455949978043,0.0,0.0,0.0,0.0,0.0,0.0,0.0,0.0,0.0,0.008028514559173916,-0.0015707963267948967,-0.02495820830351891,0.0,0.0,0.0,0.0,0.0,0.0,0.0,0.0,0.0,0.34715541,0.02745862,9.845876599999999,0.0,0.0,0.0,0.0,0.0,0.0,0.0,0.0,0.0
1704780817346840828,11938,1704780817346505779,imu_link,0.003291803255310287,-0.0009603158894884978,-0.9996421708008865,-0.02652870485364989,0.0,0.0,0.0,0.0,0.0,0.0,0.0,0.0,0.0,0.002967059728390361,-0.0054105206811824215,-0.021118483949131385,0.0,0.0,0.0,0.0,0.0,0.0,0.0,0.0,0.0,0.46973853499999996,0.048052584999999995,9.629149635,0.0,0.0,0.0,0.0,0.0,0.0,0.0,0.0,0.0
1704780817446821281,11939,1704780817446531588,imu_link,0.0028545486245982955,-0.0009519817910947255,-0.9996127953169154,-0.027662333985431286,0.0,0.0,0.0,0.0,0.0,0.0,0.0,0.0,0.0,-0.004363323129985824,-0.013962634015954637,-0.027925268031909273,0.0,0.0,0.0,0.0,0.0,0.0,0.0,0.0,0.0,0.38442067999999996,-0.1372931,9.927271795,0.0,0.0,0.0,0.0,0.0,0.0,0.0,0.0,0.0
1704780817547093903,11940,1704780817546711272,imu_link,0.0023214986264320325,-0.0012038604014587844,-0.999556366393112,-0.029668700127584106,0.0,0.0,0.0,0.0,0.0,0.0,0.0,0.0,0.0,0.0020943951023931952,-0.004014257279586958,-0.04625122517784973,0.0,0.0,0.0,0.0,0.0,0.0,0.0,0.0,0.0,0.4550285599999999,-0.065704555,9.840973275,0.0,0.0,0.0,0.0,0.0,0.0,0.0,0.0,0.0
1704780817647397077,11941,1704780817646993392,imu_link,0.001961131223791963,-0.001460157125525048,-0.9994785053299617,-0.03219843612472075,0.0,0.0,0.0,0.0,0.0,0.0,0.0,0.0,0.0,-0.0038397243543875246,-0.011344640137963142,-0.05585053606381855,0.0,0.0,0.0,0.0,0.0,0.0,0.0,0.0,0.0,0.43541525999999997,-0.01372931,9.735061455,0.0,0.0,0.0,0.0,0.0,0.0,0.0,0.0,0.0
1704780817746433650,11942,1704780817746088144,imu_link,0.0016951532793988747,-0.001456765136914194,-0.999379073016131,-0.035163513876089895,0.0,0.0,0.0,0.0,0.0,0.0,0.0,0.0,0.0,-0.002967059728390361,-0.005585053606381855,-0.06230825429619756,0.0,0.0,0.0,0.0,0.0,0.0,0.0,0.0,0.0,0.401091985,-0.053936574999999994,9.74584877,0.0,0.0,0.0,0.0,0.0,0.0,0.0,0.0,0.0
1704780817846904379,11943,1704780817846406125,imu_link,0.0015193870128072022,-0.0013683295691268094,-0.999260745720858,-0.03838985801862485,0.0,0.0,0.0,0.0,0.0,0.0,0.0,0.0,0.0,0.003490658503988659,-0.0041887902047863905,-0.06370451769779302,0.0,0.0,0.0,0.0,0.0,0.0,0.0,0.0,0.0,0.48346784499999995,-0.0196133,9.844895935,0.0,0.0,0.0,0.0,0.0,0.0,0.0,0.0,0.0
1704780817946738702,11944,1704780817946452395,imu_link,0.001417871484412725,-0.001630302991157473,-0.9991565687558196,-0.04100588817118588,0.0,0.0,0.0,0.0,0.0,0.0,0.0,0.0,0.0,0.013439035240356337,0.006632251157578452,-0.034208453339088854,0.0,0.0,0.0,0.0,0.0,0.0,0.0,0.0,0.0,0.49621648999999995,0.26085688999999995,9.635033625,0.0,0.0,0.0,0.0,0.0,0.0,0.0,0.0,0.0
1704780818046892879,11945,1704780818046567825,imu_link,0.00184260027049259,-0.0019102536753138441,-0.9991445638334038,-0.04126858753696997,0.0,0.0,0.0,0.0,0.0,0.0,0.0,0.0,0.0,0.0008726646259971648,0.0019198621771937623,0.012217304763960306,0.0,0.0,0.0,0.0,0.0,0.0,0.0,0.0,0.0,0.31479346499999994,0.17651969999999997,9.950807755,0.0,0.0,0.0,0.0,0.0,0.0,0.0,0.0,0.0
1704780818145868738,11946,1704780818145488027,imu_link,0.0019444705805243597,-0.0015647477724566252,-0.9991521802086295,-0.04109369030535719,0.0,0.0,0.0,0.0,0.0,0.0,0.0,0.0,0.0,-0.00034906585039886593,0.004363323129985824,-0.0020943951023931952,0.0,0.0,0.0,0.0,0.0,0.0,0.0,0.0,0.0,0.48346784499999995,0.02745862,9.732119459999998,0.0,0.0,0.0,0.0,0.0,0.0,0.0,0.0,0.0
1704780818246656676,11947,1704780818246330134,imu_link,0.002038956750645736,-0.0013937705302338955,-0.9991558366460831,-0.04100626970530034,0.0,0.0,0.0,0.0,0.0,0.0,0.0,0.0,0.0,0.00034906585039886593,0.0017453292519943296,0.004014257279586958,0.0,0.0,0.0,0.0,0.0,0.0,0.0,0.0,0.0,0.39618865999999997,-0.04903325,9.807630665,0.0,0.0,0.0,0.0,0.0,0.0,0.0,0.0,0.0
1704780818346632693,11948,1704780818346218063,imu_link,0.002126027707815882,-0.0013975340477750846,-0.9991520634714015,-0.041093563554543064,0.0,0.0,0.0,0.0,0.0,0.0,0.0,0.0,0.0,-0.00471238898038469,0.002617993877991494,-0.00942477796076938,0.0,0.0,0.0,0.0,0.0,0.0,0.0,0.0,0.0,0.28831551,-0.042168594999999996,9.803708004999999,0.0,0.0,0.0,0.0,0.0,0.0,0.0,0.0,0.0
1704780818446968412,11949,1704780818446359907,imu_link,0.002571336396950608,-0.0011570274317251402,-0.9991003723727168,-0.04231424631675073,0.0,0.0,0.0,0.0,0.0,0.0,0.0,0.0,0.0,-0.012391837689159739,0.012042771838760872,-0.035953782591083186,0.0,0.0,0.0,0.0,0.0,0.0,0.0,0.0,0.0,0.0980665,-0.06472388999999999,9.637975619999999,0.0,0.0,0.0,0.0,0.0,0.0,0.0,0.0,0.0
1704780818546942430,11950,1704780818546578361,imu_link,0.0029370034483128015,-0.0007420090195186265,-0.999008992841907,-0.044405581342418454,0.0,0.0,0.0,0.0,0.0,0.0,0.0,0.0,0.0,-0.0005235987755982988,0.005235987755982988,-0.0486946861306418,0.0,0.0,0.0,0.0,0.0,0.0,0.0,0.0,0.0,-0.157887065,-0.3334261,10.082216865,0.0,0.0,0.0,0.0,0.0,0.0,0.0,0.0,0.0
1704780818647159805,11951,1704780818646705462,imu_link,0.003005132806420528,-0.001104312643600501,-0.9988598144512131,-0.04763213983109881,0.0,0.0,0.0,0.0,0.0,0.0,0.0,0.0,0.0,0.008203047484373348,0.0020943951023931952,-0.07731808586334879,0.0,0.0,0.0,0.0,0.0,0.0,0.0,0.0,0.0,-0.29223816999999996,-0.0392266,9.82430197,0.0,0.0,0.0,0.0,0.0,0.0,0.0,0.0,0.0
1704780818746374701,11952,1704780818745902048,imu_link,0.0027393228934110697,-0.0011026098465376653,-0.998665839334441,-0.051554065873105716,0.0,0.0,0.0,0.0,0.0,0.0,0.0,0.0,0.0,-0.00034906585039886593,-0.0041887902047863905,-0.07557275661135446,0.0,0.0,0.0,0.0,0.0,0.0,0.0,0.0,0.0,-0.263798885,-0.083356525,9.716428819999999,0.0,0.0,0.0,0.0,0.0,0.0,0.0,0.0,0.0
1704780818846398099,11953,1704780818846059605,imu_link,0.0026526813787619715,-0.0010213861895903742,-0.9984560241890827,-0.055475109844726055,0.0,0.0,0.0,0.0,0.0,0.0,0.0,0.0,0.0,0.0054105206811824215,-0.005759586531581288,-0.08429940287132612,0.0,0.0,0.0,0.0,0.0,0.0,0.0,0.0,0.0,-0.21084297499999996,-0.15298373999999998,9.939039775,0.0,0.0,0.0,0.0,0.0,0.0,0.0,0.0,0.0
1704780818946993997,11954,1704780818946534840,imu_link,0.0027196453104167658,-0.0012995009580826287,-0.9982039160115326,-0.059831905250348906,0.0,0.0,0.0,0.0,0.0,0.0,0.0,0.0,0.0,0.008726646259971648,0.011868238913561443,-0.08517206749732328,0.0,0.0,0.0,0.0,0.0,0.0,0.0,0.0,0.0,-0.36284605,-0.022555295,9.709564165,0.0,0.0,0.0,0.0,0.0,0.0,0.0,0.0,0.0
1704780819046881233,11955,1704780819046489491,imu_link,0.0033999689217489087,-0.0015291463860469035,-0.9979532025688931,-0.06383970085417966,0.0,0.0,0.0,0.0,0.0,0.0,0.0,0.0,0.0,0.007504915783575617,0.034208453339088854,-0.07400196028455958,0.0,0.0,0.0,0.0,0.0,0.0,0.0,0.0,0.0,-1.3474337099999998,-0.04118793,9.84979926,0.0,0.0,0.0,0.0,0.0,0.0,0.0,0.0,0.0
1704780819146143663,11956,1704780819145730610,imu_link,0.003986459792450127,-0.001843327567252306,-0.997721462823473,-0.0673245341847389,0.0,0.0,0.0,0.0,0.0,0.0,0.0,0.0,0.0,-0.0008726646259971648,-0.023387411976724018,-0.06457718232379019,0.0,0.0,0.0,0.0,0.0,0.0,0.0,0.0,0.0,-1.24740588,0.053936574999999994,9.75173276,0.0,0.0,0.0,0.0,0.0,0.0,0.0,0.0,0.0
1704780819246368346,11957,1704780819245801966,imu_link,0.0031160100720787572,-0.00170786091681174,-0.997496158231567,-0.07063135285115307,0.0,0.0,0.0,0.0,0.0,0.0,0.0,0.0,0.0,0.006108652381980153,-0.0017453292519943296,-0.07086036763096977,0.0,0.0,0.0,0.0,0.0,0.0,0.0,0.0,0.0,-0.3138128,0.22751427999999996,10.03808694,0.0,0.0,0.0,0.0,0.0,0.0,0.0,0.0,0.0
1704780819346378290,11958,1704780819345921338,imu_link,0.003436638349662947,-0.0020855039997149357,-0.9973946825918927,-0.07202560188806977,0.0,0.0,0.0,0.0,0.0,0.0,0.0,0.0,0.0,0.004537856055185257,0.0015707963267948967,0.014486232791552934,0.0,0.0,0.0,0.0,0.0,0.0,0.0,0.0,0.0,-0.07453053999999999,0.163771055,9.875296549999998,0.0,0.0,0.0,0.0,0.0,0.0,0.0,0.0,0.0
1704780819446508969,11959,1704780819446133843,imu_link,0.0025745560071695644,-0.001932926249243594,-0.9974725768638352,-0.0709795312896715,0.0,0.0,0.0,0.0,0.0,0.0,0.0,0.0,0.0,-0.0031415926535897933,-0.0010471975511965976,0.006981317007977318,0.0,0.0,0.0,0.0,0.0,0.0,0.0,0.0,0.0,0.6786201799999999,0.06374322499999999,9.721332145,0.0,0.0,0.0,0.0,0.0,0.0,0.0,0.0,0.0
1704780819546681592,11960,1704780819546250639,imu_link,0.0032020106006428475,-0.0017159800302150997,-0.9974525344343003,-0.07124074740793054,0.0,0.0,0.0,0.0,0.0,0.0,0.0,0.0,0.0,-0.004363323129985824,0.003316125578789226,-0.00645771823237902,0.0,0.0,0.0,0.0,0.0,0.0,0.0,0.0,0.0,0.49131316499999994,-0.03138128,9.907658495,0.0,0.0,0.0,0.0,0.0,0.0,0.0,0.0,0.0
1704780819645344959,11961,1704780819644932657,imu_link,0.0030224862010127737,-0.001789273596466448,-0.9974839503725511,-0.07080559177304956,0.0,0.0,0.0,0.0,0.0,0.0,0.0,0.0,0.0,0.005934119456780722,0.0012217304763960308,0.015707963267948967,0.0,0.0,0.0,0.0,0.0,0.0,0.0,0.0,0.0,0.716866115,-0.02157463,9.74977143,0.0,0.0,0.0,0.0,0.0,0.0,0.0,0.0,0.0
1704780819746313957,11962,1704780819745937877,imu_link,0.0034458845685930496,-0.0019933553407942887,-0.9975006085606575,-0.07054564717360715,0.0,0.0,0.0,0.0,0.0,0.0,0.0,0.0,0.0,-0.0,0.005759586531581288,-0.0006981317007977319,0.0,0.0,0.0,0.0,0.0,0.0,0.0,0.0,0.0,0.44227991499999997,0.14317708999999998,9.944923764999999,0.0,0.0,0.0,0.0,0.0,0.0,0.0,0.0,0.0
1704780819846287293,11963,1704780819845718163,imu_link,0.0032965549708140543,-0.0016325635429666663,-0.9975080204842907,-0.07045719644659892,0.0,0.0,0.0,0.0,0.0,0.0,0.0,0.0,0.0,-0.014835298641951801,-0.0005235987755982988,0.002967059728390361,0.0,0.0,0.0,0.0,0.0,0.0,0.0,0.0,0.0,0.301064155,-0.097085835,9.731138795,0.0,0.0,0.0,0.0,0.0,0.0,0.0,0.0,0.0
1704780819946328840,11964,1704780819945921623,imu_link,0.0034945676727936373,-0.0012984928985238352,-0.9974708837256099,-0.07097843357403293,0.0,0.0,0.0,0.0,0.0,0.0,0.0,0.0,0.0,-0.0012217304763960308,0.0027925268031909274,-0.023387411976724018,0.0,0.0,0.0,0.0,0.0,0.0,0.0,0.0,0.0,0.00392266,-0.14611908499999998,10.019454305,0.0,0.0,0.0,0.0,0.0,0.0,0.0,0.0,0.0
1704780820046781049,11965,1704780820046286337,imu_link,0.003219263316957283,-0.001457938338958774,-0.9973841087230232,-0.07219730207062251,0.0,0.0,0.0,0.0,0.0,0.0,0.0,0.0,0.0,-0.0,-0.004363323129985824,-0.023387411976724018,0.0,0.0,0.0,0.0,0.0,0.0,0.0,0.0,0.0,-0.09610516999999999,-0.0392266,9.703680175,0.0,0.0,0.0,0.0,0.0,0.0,0.0,0.0,0.0
1704780820145651969,11966,1704780820145269614,imu_link,0.0025009931805937417,-0.0016732418215287292,-0.9972518410201191,-0.07402506924617193,0.0,0.0,0.0,0.0,0.0,0.0,0.0,0.0,0.0,0.0020943951023931952,-0.025132741228718346,-0.054977871437821374,0.0,0.0,0.0,0.0,0.0,0.0,0.0,0.0,0.0,-0.25105024,-0.31577413,10.174399375,0.0,0.0,0.0,0.0,0.0,0.0,0.0,0.0,0.0
1704780820246295409,11967,1704780820245721548,imu_link,0.0013434744457232189,-0.0018552878844049416,-0.9969758245439683,-0.07767855726102503,0.0,0.0,0.0,0.0,0.0,0.0,0.0,0.0,0.0,0.005934119456780722,-0.020420352248333655,-0.07836528341454539,0.0,0.0,0.0,0.0,0.0,0.0,0.0,0.0,0.0,0.08531785499999998,0.11277647499999999,9.31435617,0.0,0.0,0.0,0.0,0.0,0.0,0.0,0.0,0.0
1704780820346042046,11968,1704780820345630475,imu_link,0.0007635525402309188,-0.0013754999941779874,-0.9967000984573102,-0.08115687723460173,0.0,0.0,0.0,0.0,0.0,0.0,0.0,0.0,0.0,-0.015707963267948967,-0.014137166941154071,-0.07243116395776468,0.0,0.0,0.0,0.0,0.0,0.0,0.0,0.0,0.0,0.23241760499999997,-0.28635417999999996,10.054758245,0.0,0.0,0.0,0.0,0.0,0.0,0.0,0.0,0.0
1704780820446289187,11969,1704780820445822865,imu_link,0.00025749853773201196,-0.001073388740715306,-0.9962772601281746,-0.08619978238146414,0.0,0.0,0.0,0.0,0.0,0.0,0.0,0.0,0.0,-0.0027925268031909274,-0.0036651914291880917,-0.12897983172238095,0.0,0.0,0.0,0.0,0.0,0.0,0.0,0.0,0.0,0.46287387999999996,-0.42462794499999995,9.58894237,0.0,0.0,0.0,0.0,0.0,0.0,0.0,0.0,0.0
1704780820545327085,11970,1704780820544927570,imu_link,0.0005185235219506519,-0.0010127963444548618,-0.995626714648683,-0.09341386650166922,0.0,0.0,0.0,0.0,0.0,0.0,0.0,0.0,0.0,0.007330382858376183,0.00471238898038469,-0.14835298641951802,0.0,0.0,0.0,0.0,0.0,0.0,0.0,0.0,0.0,0.48248717999999996,-0.19809432999999999,9.807630665,0.0,0.0,0.0,0.0,0.0,0.0,0.0,0.0,0.0
1704780820645652125,11971,1704780820645241431,imu_link,0.0007098892753339338,-0.0016507561849155733,-0.9949053751046399,-0.10079715099709044,0.0,0.0,0.0,0.0,0.0,0.0,0.0,0.0,0.0,0.016929693744344998,0.00034906585039886593,-0.15184364492350666,0.0,0.0,0.0,0.0,0.0,0.0,0.0,0.0,0.0,0.37069136999999996,-0.33734875999999997,10.06946822,0.0,0.0,0.0,0.0,0.0,0.0,0.0,0.0,0.0
1704780820745748996,11972,1704780820745308371,imu_link,0.00036082960825831677,-0.002321848478305706,-0.9940818977015541,-0.1086078242288035,0.0,0.0,0.0,0.0,0.0,0.0,0.0,0.0,0.0,0.002617993877991494,-0.003490658503988659,-0.15760323145508795,0.0,0.0,0.0,0.0,0.0,0.0,0.0,0.0,0.0,0.42462794499999995,0.09120184499999999,9.754674755,0.0,0.0,0.0,0.0,0.0,0.0,0.0,0.0,0.0
1704780820846095099,11973,1704780820845441067,imu_link,0.0006905134324908598,-0.0023648837349531018,-0.9932587192719557,-0.1158923945147128,0.0,0.0,0.0,0.0,0.0,0.0,0.0,0.0,0.0,0.0012217304763960308,0.007853981633974483,-0.13281955607676849,0.0,0.0,0.0,0.0,0.0,0.0,0.0,0.0,0.0,0.33146476999999996,-0.22751427999999996,9.972382384999998,0.0,0.0,0.0,0.0,0.0,0.0,0.0,0.0,0.0
1704780820946028336,11974,1704780820945643597,imu_link,0.0009578884863604409,-0.0029315661684236175,-0.9924983828176732,-0.12221885482097723,0.0,0.0,0.0,0.0,0.0,0.0,0.0,0.0,0.0,0.010297442586766544,0.014137166941154071,-0.12671090369478832,0.0,0.0,0.0,0.0,0.0,0.0,0.0,0.0,0.0,0.27066354,-0.0196133,9.784094705,0.0,0.0,0.0,0.0,0.0,0.0,0.0,0.0,0.0
1704780821046275723,11975,1704780821045842761,imu_link,0.0015326884014688928,-0.003103201259744389,-0.991653256647799,-0.1288869255899137,0.0,0.0,0.0,0.0,0.0,0.0,0.0,0.0,0.0,0.003490658503988659,-0.00645771823237902,-0.1329940890019679,0.0,0.0,0.0,0.0,0.0,0.0,0.0,0.0,0.0,0.0058839899999999995,0.16671305,9.676221555,0.0,0.0,0.0,0.0,0.0,0.0,0.0,0.0,0.0
1704780821145523983,11976,1704780821145059318,imu_link,0.0009295056170625104,-0.002239445206803492,-0.9909448328849205,-0.13424775261862237,0.0,0.0,0.0,0.0,0.0,0.0,0.0,0.0,0.0,-0.00890117918517108,-0.009948376736367677,-0.08237954069413235,0.0,0.0,0.0,0.0,0.0,0.0,0.0,0.0,0.0,-0.024516625,-0.09904716499999999,10.12438546,0.0,0.0,0.0,0.0,0.0,0.0,0.0,0.0,0.0
1704780821245798275,11977,1704780821245290222,imu_link,0.0005512892033322606,-0.0023676236231566974,-0.9904341614095541,-0.13796471415382436,0.0,0.0,0.0,0.0,0.0,0.0,0.0,0.0,0.0,0.03647738136668148,-0.014660765716752367,-0.07661995416255106,0.0,0.0,0.0,0.0,0.0,0.0,0.0,0.0,0.0,-0.196133,-0.420705285,9.462436584999999,0.0,0.0,0.0,0.0,0.0,0.0,0.0,0.0,0.0
1704780821345761636,11978,1704780821345321260,imu_link,-0.0006441078353506887,-0.0038747799281408247,-0.9898555864251187,-0.1420228475583738,0.0,0.0,0.0,0.0,0.0,0.0,0.0,0.0,0.0,0.02897246558310587,-0.007504915783575617,-0.07958701389094142,0.0,0.0,0.0,0.0,0.0,0.0,0.0,0.0,0.0,-0.18534568499999998,0.32165812,10.15772807,0.0,0.0,0.0,0.0,0.0,0.0,0.0,0.0,0.0
1704780821446056875,11979,1704780821445530034,imu_link,-0.0004990406935421426,-0.003984061875064448,-0.9893025173738187,-0.14582320572250126,0.0,0.0,0.0,0.0,0.0,0.0,0.0,0.0,0.0,-0.017627825445142728,-0.005934119456780722,-0.07487462491055674,0.0,0.0,0.0,0.0,0.0,0.0,0.0,0.0,0.0,-0.04118793,0.142196425,9.47910789,0.0,0.0,0.0,0.0,0.0,0.0,0.0,0.0,0.0
1704780821545330362,11980,1704780821544801166,imu_link,-0.0009014679442640274,-0.0030409390035706484,-0.9887385582653655,-0.14961952895544198,0.0,0.0,0.0,0.0,0.0,0.0,0.0,0.0,0.0,-0.011519173063162576,0.0006981317007977319,-0.08255407361933179,0.0,0.0,0.0,0.0,0.0,0.0,0.0,0.0,0.0,-0.00784532,-0.42462794499999995,9.944923764999999,0.0,0.0,0.0,0.0,0.0,0.0,0.0,0.0,0.0
1704780821645754423,11981,1704780821644983622,imu_link,-0.0003529252769837505,-0.003389533628643342,-0.9880079873446824,-0.15436516267810868,0.0,0.0,0.0,0.0,0.0,0.0,0.0,0.0,0.0,0.01308996938995747,0.011693705988362009,-0.10978120995044333,0.0,0.0,0.0,0.0,0.0,0.0,0.0,0.0,0.0,-0.09022118,-0.25497289999999995,9.870393224999999,0.0,0.0,0.0,0.0,0.0,0.0,0.0,0.0,0.0
1704780821745366285,11982,1704780821744956339,imu_link,-2.6582030993184294e-05,-0.003974118440954016,-0.9870582186878508,-0.16031306433594197,0.0,0.0,0.0,0.0,0.0,0.0,0.0,0.0,0.0,0.0019198621771937623,0.011344640137963142,-0.130201562198777,0.0,0.0,0.0,0.0,0.0,0.0,0.0,0.0,0.0,0.083356525,-0.12552512,9.687989535,0.0,0.0,0.0,0.0,0.0,0.0,0.0,0.0,0.0
1704780821845687985,11983,1704780821845301457,imu_link,0.0006350448286648546,-0.004090393183303746,-0.9859576260541449,-0.1669443770462081,0.0,0.0,0.0,0.0,0.0,0.0,0.0,0.0,0.0,-0.0019198621771937623,0.006981317007977318,-0.1329940890019679,0.0,0.0,0.0,0.0,0.0,0.0,0.0,0.0,0.0,-0.10002783,-0.255953565,9.982189035,0.0,0.0,0.0,0.0,0.0,0.0,0.0,0.0,0.0
1704780821945852013,11984,1704780821945441806,imu_link,0.0008903313710276474,-0.004498992035493608,-0.9847961697627131,-0.17365330518422084,0.0,0.0,0.0,0.0,0.0,0.0,0.0,0.0,0.0,0.016929693744344998,0.013439035240356337,-0.1408480706359424,0.0,0.0,0.0,0.0,0.0,0.0,0.0,0.0,0.0,-0.07354987499999999,-0.097085835,9.691912194999999,0.0,0.0,0.0,0.0,0.0,0.0,0.0,0.0,0.0
1704780822045987491,11985,1704780822045592970,imu_link,0.001366991657493231,-0.005129877179810836,-0.9836185915157021,-0.18018402292821317,0.0,0.0,0.0,0.0,0.0,0.0,0.0,0.0,0.0,-0.006108652381980153,0.004014257279586958,-0.12147491593880534,0.0,0.0,0.0,0.0,0.0,0.0,0.0,0.0,0.0,0.046091255,0.16279038999999998,9.856663915,0.0,0.0,0.0,0.0,0.0,0.0,0.0,0.0,0.0
1704780822145262210,11986,1704780822144756562,imu_link,0.001428983041441205,-0.004178626351455531,-0.9825205648402419,-0.18610168391310664,0.0,0.0,0.0,0.0,0.0,0.0,0.0,0.0,0.0,-0.038397243543875255,-0.010821041362364843,-0.12985249634837814,0.0,0.0,0.0,0.0,0.0,0.0,0.0,0.0,0.0,-0.09610516999999999,-0.08924051499999999,9.852741254999998,0.0,0.0,0.0,0.0,0.0,0.0,0.0,0.0,0.0
1704780822245388810,11987,1704780822244860810,imu_link,0.0010216185412496486,-0.003402202725071718,-0.9812518537509745,-0.19269712198797875,0.0,0.0,0.0,0.0,0.0,0.0,0.0,0.0,0.0,-0.005235987755982988,0.012566370614359173,-0.13386675362796507,0.0,0.0,0.0,0.0,0.0,0.0,0.0,0.0,0.0,-0.055897905,-0.47856452,9.860586575,0.0,0.0,0.0,0.0,0.0,0.0,0.0,0.0,0.0
1704780822345489890,11988,1704780822345102739,imu_link,0.0012535394906180684,-0.004350765081901698,-0.979982502509119,-0.19903214378062672,0.0,0.0,0.0,0.0,0.0,0.0,0.0,0.0,0.0,0.012217304763960306,-0.019198621771937627,-0.1270599695451872,0.0,0.0,0.0,0.0,0.0,0.0,0.0,0.0,0.0,-0.21378497,-0.16671305,9.82822463,0.0,0.0,0.0,0.0,0.0,0.0,0.0,0.0,0.0
1704780822445921985,11989,1704780822445276436,imu_link,0.0006036244419851215,-0.004319586159559915,-0.978390301023357,-0.20672057390682708,0.0,0.0,0.0,0.0,0.0,0.0,0.0,0.0,0.0,-0.009075712110370514,0.0012217304763960308,-0.19442967867216834,0.0,0.0,0.0,0.0,0.0,0.0,0.0,0.0,0.0,-0.08237586,-0.28537351499999997,9.874315884999998,0.0,0.0,0.0,0.0,0.0,0.0,0.0,0.0,0.0
1704780822544903307,11990,1704780822544458482,imu_link,0.0004626815443838089,-0.003947179218801354,-0.9761169576533983,-0.21720932457764586,0.0,0.0,0.0,0.0,0.0,0.0,0.0,0.0,0.0,-0.00715584993317675,-0.017104226669544427,-0.2155481626212997,0.0,0.0,0.0,0.0,0.0,0.0,0.0,0.0,0.0,-0.15102241,-0.228494945,10.00082167,0.0,0.0,0.0,0.0,0.0,0.0,0.0,0.0,0.0
1704780822645218085,11991,1704780822644639358,imu_link,-3.269988298392954e-05,-0.004382341220907898,-0.9740447261363184,-0.22631320222683796,0.0,0.0,0.0,0.0,0.0,0.0,0.0,0.0,0.0,0.019896753472735354,0.005235987755982988,-0.16929693744344995,0.0,0.0,0.0,0.0,0.0,0.0,0.0,0.0,0.0,0.018632634999999998,-0.15298373999999998,9.746829434999999,0.0,0.0,0.0,0.0,0.0,0.0,0.0,0.0,0.0
1704780822745206547,11992,1704780822744793054,imu_link,0.0001701463335503936,-0.005247723736853867,-0.9720893945433581,-0.23455200161613352,0.0,0.0,0.0,0.0,0.0,0.0,0.0,0.0,0.0,0.00890117918517108,0.006632251157578452,-0.16807520696705394,0.0,0.0,0.0,0.0,0.0,0.0,0.0,0.0,0.0,0.10100849499999999,0.28439285,9.82234064,0.0,0.0,0.0,0.0,0.0,0.0,0.0,0.0,0.0
1704780822845301287,11993,1704780822844858326,imu_link,0.0009132470609046106,-0.004994385045176709,-0.9702808639078263,-0.2419282274396867,0.0,0.0,0.0,0.0,0.0,0.0,0.0,0.0,0.0,-0.007504915783575617,0.017627825445142728,-0.13334315485236678,0.0,0.0,0.0,0.0,0.0,0.0,0.0,0.0,0.0,0.07354987499999999,-0.155925735,9.848818595,0.0,0.0,0.0,0.0,0.0,0.0,0.0,0.0,0.0
1704780822945497473,11994,1704780822945047915,imu_link,0.0017254187546467904,-0.005217046699087497,-0.9686519057047638,-0.24836121059535457,0.0,0.0,0.0,0.0,0.0,0.0,0.0,0.0,0.0,0.013962634015954637,0.013439035240356337,-0.14137166941154067,0.0,0.0,0.0,0.0,0.0,0.0,0.0,0.0,0.0,-0.13925443,-0.21084297499999996,9.752713425,0.0,0.0,0.0,0.0,0.0,0.0,0.0,0.0,0.0
1704780823045617475,11995,1704780823045255080,imu_link,0.002229365975223078,-0.005913702763201372,-0.966843846872122,-0.25529009736473124,0.0,0.0,0.0,0.0,0.0,0.0,0.0,0.0,0.0,0.02583087292951608,0.016231562043547268,-0.1308996938995747,0.0,0.0,0.0,0.0,0.0,0.0,0.0,0.0,0.0,-0.00196133,0.40305331499999997,9.826263299999999,0.0,0.0,0.0,0.0,0.0,0.0,0.0,0.0,0.0
1704780823144979810,11996,1704780823144523051,imu_link,0.002776743589200105,-0.006163485977677349,-0.9659656977681962,-0.2585818475277113,0.0,0.0,0.0,0.0,0.0,0.0,0.0,0.0,0.0,-0.010297442586766544,0.00017453292519943296,-0.01064650843716541,0.0,0.0,0.0,0.0,0.0,0.0,0.0,0.0,0.0,-0.069627215,0.575650355,9.74584877,0.0,0.0,0.0,0.0,0.0,0.0,0.0,0.0,0.0
1704780823245069795,11997,1704780823244613870,imu_link,0.0035430816304252133,-0.00465178714558967,-0.965995325898474,-0.2584933998987464,0.0,0.0,0.0,0.0,0.0,0.0,0.0,0.0,0.0,-0.02199114857512855,0.01815142422074103,-0.0036651914291880917,0.0,0.0,0.0,0.0,0.0,0.0,0.0,0.0,0.0,-0.106892485,0.087279185,9.991995685,0.0,0.0,0.0,0.0,0.0,0.0,0.0,0.0,0.0
1704780823345533046,11998,1704780823345096931,imu_link,0.003969742768191921,-0.0044055040532456026,-0.9659498535608262,-0.25866138691774143,0.0,0.0,0.0,0.0,0.0,0.0,0.0,0.0,0.0,0.007853981633974483,-0.005585053606381855,0.007504915783575617,0.0,0.0,0.0,0.0,0.0,0.0,0.0,0.0,0.0,-0.09218251,-0.008825985,9.461455919999999,0.0,0.0,0.0,0.0,0.0,0.0,0.0,0.0,0.0
1704780823445458201,11999,1704780823445032070,imu_link,0.003824198354008212,-0.004630484663124646,-0.9663093587572815,-0.2573133445758797,0.0,0.0,0.0,0.0,0.0,0.0,0.0,0.0,0.0,0.00471238898038469,0.0017453292519943296,0.03612831551628262,0.0,0.0,0.0,0.0,0.0,0.0,0.0,0.0,0.0,-0.17553903499999998,0.16573238499999998,10.150863414999998,0.0,0.0,0.0,0.0,0.0,0.0,0.0,0.0,0.0
1704780823544549540,12000,1704780823544103466,imu_link,0.003492038237107889,-0.004536718181239332,-0.9666025342594448,-0.25621624581652463,0.0,0.0,0.0,0.0,0.0,0.0,0.0,0.0,0.0,-0.010821041362364843,-0.013264502315156903,0.009250245035569947,0.0,0.0,0.0,0.0,0.0,0.0,0.0,0.0,0.0,-0.24124358999999998,0.10198916,9.629149635,0.0,0.0,0.0,0.0,0.0,0.0,0.0,0.0,0.0
1704780823646001810,12001,1704780823645582695,imu_link,0.0032469320086637218,-0.004107617007703696,-0.9667844981312061,-0.2555392711272401,0.0,0.0,0.0,0.0,0.0,0.0,0.0,0.0,0.0,-0.00890117918517108,-0.0036651914291880917,0.01884955592153876,0.0,0.0,0.0,0.0,0.0,0.0,0.0,0.0,0.0,-0.134351105,0.010787315,9.88118054,0.0,0.0,0.0,0.0,0.0,0.0,0.0,0.0,0.0
1704780823745338256,12002,1704780823744894911,imu_link,0.002913314173116988,-0.004015631130409052,-0.9670309722659678,-0.2546104593010475,0.0,0.0,0.0,0.0,0.0,0.0,0.0,0.0,0.0,0.008726646259971648,0.0024434609527920616,0.01658062789394613,0.0,0.0,0.0,0.0,0.0,0.0,0.0,0.0,0.0,0.067665885,-0.116699135,9.65758892,0.0,0.0,0.0,0.0,0.0,0.0,0.0,0.0,0.0
1704780823845486038,12003,1704780823845002243,imu_link,0.0037769130387533163,-0.00451153466373997,-0.9671360434051841,-0.2541913738297218,0.0,0.0,0.0,0.0,0.0,0.0,0.0,0.0,0.0,0.0010471975511965976,0.014486232791552934,0.007679448708775049,0.0,0.0,0.0,0.0,0.0,0.0,0.0,0.0,0.0,-0.12160245999999998,0.15102241,9.76546207,0.0,0.0,0.0,0.0,0.0,0.0,0.0,0.0,0.0
1704780823944812329,12004,1704780823944326482,imu_link,0.003871888073853144,-0.00345709314186841,-0.9669634565500558,-0.25486217978845044,0.0,0.0,0.0,0.0,0.0,0.0,0.0,0.0,0.0,-0.029321531433504733,-0.002967059728390361,-0.05305800926062761,0.0,0.0,0.0,0.0,0.0,0.0,0.0,0.0,0.0,-0.0980665,-0.5109264649999999,9.919426475,0.0,0.0,0.0,0.0,0.0,0.0,0.0,0.0,0.0
1704780824044780617,12005,1704780824044307091,imu_link,0.004472185844234434,-0.0031928549224767566,-0.9655690272322289,-0.2600889441729997,0.0,0.0,0.0,0.0,0.0,0.0,0.0,0.0,0.0,0.0054105206811824215,0.010297442586766544,-0.13980087308474579,0.0,0.0,0.0,0.0,0.0,0.0,0.0,0.0,0.0,-0.09610516999999999,-0.679600845,9.75369409,0.0,0.0,0.0,0.0,0.0,0.0,0.0,0.0,0.0
1704780824145143320,12006,1704780824144640145,imu_link,0.003712670172716815,-0.003924988881604546,-0.9637527527175201,-0.26674227668644934,0.0,0.0,0.0,0.0,0.0,0.0,0.0,0.0,0.0,0.013439035240356337,-0.017976891295541593,-0.1349139511791617,0.0,0.0,0.0,0.0,0.0,0.0,0.0,0.0,0.0,-0.08531785499999998,-0.08629852,9.80272734,0.0,0.0,0.0,0.0,0.0,0.0,0.0,0.0,0.0
1704780824245288617,12007,1704780824244848416,imu_link,0.003780722167786342,-0.004251012439500704,-0.9618173095772435,-0.2736331449783121,0.0,0.0,0.0,0.0,0.0,0.0,0.0,0.0,0.0,-0.0036651914291880917,0.00715584993317675,-0.15009831567151233,0.0,0.0,0.0,0.0,0.0,0.0,0.0,0.0,0.0,-0.14709974999999997,0.11571846999999999,9.894909849999998,0.0,0.0,0.0,0.0,0.0,0.0,0.0,0.0,0.0
1704780824344168232,12008,1704780824343772405,imu_link,0.003958204339911207,-0.0032507605076746836,-0.9596674923156818,-0.2810908560715839,0.0,0.0,0.0,0.0,0.0,0.0,0.0,0.0,0.0,-0.015184364492350668,-0.0005235987755982988,-0.15323990832510212,0.0,0.0,0.0,0.0,0.0,0.0,0.0,0.0,0.0,0.051975244999999996,-0.29910282499999996,9.74584877,0.0,0.0,0.0,0.0,0.0,0.0,0.0,0.0,0.0
1704780824444507453,12009,1704780824444074250,imu_link,0.004002425227543905,-0.0036624834693554024,-0.9577047069455367,-0.28770168769316995,0.0,0.0,0.0,0.0,0.0,0.0,0.0,0.0,0.0,0.017278759594743863,-0.0019198621771937623,-0.12845623294678266,0.0,0.0,0.0,0.0,0.0,0.0,0.0,0.0,0.0,-0.07256921,-0.31773545999999997,9.69877685,0.0,0.0,0.0,0.0,0.0,0.0,0.0,0.0,0.0
1704780824544635948,12010,1704780824544290403,imu_link,0.003278351356807217,-0.004478419455529769,-0.9557483237380214,-0.29413319745231736,0.0,0.0,0.0,0.0,0.0,0.0,0.0,0.0,0.0,0.0013962634015954637,-0.005934119456780722,-0.14364059743913332,0.0,0.0,0.0,0.0,0.0,0.0,0.0,0.0,0.0,-0.2353596,0.132389775,9.93805911,0.0,0.0,0.0,0.0,0.0,0.0,0.0,0.0,0.0
1704780824644861239,12011,1704780824644384055,imu_link,0.0032914866530469713,-0.004061705789536072,-0.9534110692233627,-0.30162891397221264,0.0,0.0,0.0,0.0,0.0,0.0,0.0,0.0,0.0,-0.022863813201125717,-0.005585053606381855,-0.16615534478986016,0.0,0.0,0.0,0.0,0.0,0.0,0.0,0.0,0.0,-0.12552512,-0.24712757999999999,9.876277215,0.0,0.0,0.0,0.0,0.0,0.0,0.0,0.0,0.0
1704780824745592491,12012,1704780824745108794,imu_link,0.0033953916545782677,-0.003949310956151221,-0.9509319338658616,-0.3093563178805569,0.0,0.0,0.0,0.0,0.0,0.0,0.0,0.0,0.0,0.00715584993317675,0.008552113334772213,-0.15760323145508795,0.0,0.0,0.0,0.0,0.0,0.0,0.0,0.0,0.0,-0.09904716499999999,-0.45600922499999996,9.725254805,0.0,0.0,0.0,0.0,0.0,0.0,0.0,0.0,0.0
1704780824845274122,12013,1704780824844817939,imu_link,0.0033356794661864916,-0.004886779221440793,-0.9484400353000639,-0.3169013917157086,0.0,0.0,0.0,0.0,0.0,0.0,0.0,0.0,0.0,0.01902408884673819,-0.00017453292519943296,-0.1621410875102732,0.0,0.0,0.0,0.0,0.0,0.0,0.0,0.0,0.0,-0.09218251,0.10395048999999999,9.80665,0.0,0.0,0.0,0.0,0.0,0.0,0.0,0.0,0.0
1704780824944804693,12014,1704780824944064689,imu_link,0.003487767402074506,-0.005437548374450123,-0.9460307980411717,-0.32401234190044137,0.0,0.0,0.0,0.0,0.0,0.0,0.0,0.0,0.0,-0.00890117918517108,0.0020943951023931952,-0.14032447186034408,0.0,0.0,0.0,0.0,0.0,0.0,0.0,0.0,0.0,-0.20593965,0.051975244999999996,9.845876599999999,0.0,0.0,0.0,0.0,0.0,0.0,0.0,0.0,0.0
1704780825044499025,12015,1704780825044058191,imu_link,0.0033451680395426625,-0.004964601821434721,-0.9436340780373778,-0.33093638262676683,0.0,0.0,0.0,0.0,0.0,0.0,0.0,0.0,0.0,-0.0013962634015954637,0.0054105206811824215,-0.15638150097869194,0.0,0.0,0.0,0.0,0.0,0.0,0.0,0.0,0.0,0.075511205,-0.41089863499999996,9.586000375,0.0,0.0,0.0,0.0,0.0,0.0,0.0,0.0,0.0
1704780825144635910,12016,1704780825144285609,imu_link,0.004105754643431275,-0.006115003127320819,-0.940876063467212,-0.3386709062054248,0.0,0.0,0.0,0.0,0.0,0.0,0.0,0.0,0.0,0.011519173063162576,0.017627825445142728,-0.16667894356545848,0.0,0.0,0.0,0.0,0.0,0.0,0.0,0.0,0.0,-0.14906107999999998,-0.10198916,10.178322034999999,0.0,0.0,0.0,0.0,0.0,0.0,0.0,0.0,0.0
1704780825244795649,12017,1704780825244342403,imu_link,0.003973592339827658,-0.006118253768375329,-0.9380669257872147,-0.3463772802579098,0.0,0.0,0.0,0.0,0.0,0.0,0.0,0.0,0.0,-0.0291469985083053,-0.012566370614359173,-0.16859880574265224,0.0,0.0,0.0,0.0,0.0,0.0,0.0,0.0,0.0,-0.5334817599999999,-0.20986230999999997,9.930213789999998,0.0,0.0,0.0,0.0,0.0,0.0,0.0,0.0,0.0
1704780825343882120,12018,1704780825343502037,imu_link,0.004035447330408672,-0.0050895604362867705,-0.9342404273425619,-0.35658468202966365,0.0,0.0,0.0,0.0,0.0,0.0,0.0,0.0,0.0,-0.0036651914291880917,0.028623399732707,-0.26232298657474773,0.0,0.0,0.0,0.0,0.0,0.0,0.0,0.0,0.0,-1.38862164,-0.76688003,9.75369409,0.0,0.0,0.0,0.0,0.0,0.0,0.0,0.0,0.0
1704780825444488240,12019,1704780825444117593,imu_link,0.0041855056585039605,-0.0057862367835487365,-0.9297764149189367,-0.36805545678166035,0.0,0.0,0.0,0.0,0.0,0.0,0.0,0.0,0.0,0.008028514559173916,-0.04084070449666731,-0.20682151636132803,0.0,0.0,0.0,0.0,0.0,0.0,0.0,0.0,0.0,-1.2405412249999999,0.44424124499999995,10.009647654999998,0.0,0.0,0.0,0.0,0.0,0.0,0.0,0.0,0.0
1704780825544275999,12020,1704780825543855510,imu_link,0.0028627672999853157,-0.004551068837774152,-0.9266741937372258,-0.37582712913955835,0.0,0.0,0.0,0.0,0.0,0.0,0.0,0.0,0.0,-0.024609142453120045,-0.01064650843716541,-0.15428710587629874,0.0,0.0,0.0,0.0,0.0,0.0,0.0,0.0,0.0,-0.40305331499999997,-0.014709975,9.95571108,0.0,0.0,0.0,0.0,0.0,0.0,0.0,0.0,0.0
1704780825644717693,12021,1704780825644266147,imu_link,0.0024324399740829157,-0.0034688071118219614,-0.9233328699634016,-0.3839771631987267,0.0,0.0,0.0,0.0,0.0,0.0,0.0,0.0,0.0,-0.00471238898038469,-0.04136430327226561,-0.19024088846738194,0.0,0.0,0.0,0.0,0.0,0.0,0.0,0.0,0.0,-0.21084297499999996,-0.45993188499999993,9.838031280000001,0.0,0.0,0.0,0.0,0.0,0.0,0.0,0.0,0.0
1704780825744875017,12022,1704780825744391598,imu_link,7.348455916071671e-05,-0.0024978464379777584,-0.9198861465146306,-0.3921775526641668,0.0,0.0,0.0,0.0,0.0,0.0,0.0,0.0,0.0,0.0054105206811824215,-0.02199114857512855,-0.16126842288427604,0.0,0.0,0.0,0.0,0.0,0.0,0.0,0.0,0.0,0.6825428399999999,0.24320491999999996,9.838031280000001,0.0,0.0,0.0,0.0,0.0,0.0,0.0,0.0,0.0
1704780825844805817,12023,1704780825844395120,imu_link,-0.0008480245274582691,-0.0023907912410655327,-0.9172308098290635,-0.3983480971110106,0.0,0.0,0.0,0.0,0.0,0.0,0.0,0.0,0.0,0.007504915783575617,-0.041189770347066175,-0.11798425743481668,0.0,0.0,0.0,0.0,0.0,0.0,0.0,0.0,0.0,0.4707192,0.069627215,9.88706453,0.0,0.0,0.0,0.0,0.0,0.0,0.0,0.0,0.0
1704780825944023227,12024,1704780825943589486,imu_link,-0.0018289712002038296,-0.0017686049526854676,-0.9149928334837109,-0.4034620695608453,0.0,0.0,0.0,0.0,0.0,0.0,0.0,0.0,0.0,0.0158824961931484,0.01902408884673819,-0.10663961729685353,0.0,0.0,0.0,0.0,0.0,0.0,0.0,0.0,0.0,0.71196279,-0.16475172,9.98513103,0.0,0.0,0.0,0.0,0.0,0.0,0.0,0.0,0.0
1704780826044393247,12025,1704780826043892232,imu_link,-0.0015295483850370013,-0.0034265662123994524,-0.9131481850371584,-0.4076104896700691,0.0,0.0,0.0,0.0,0.0,0.0,0.0,0.0,0.0,0.027925268031909273,0.008726646259971648,-0.07749261878854824,0.0,0.0,0.0,0.0,0.0,0.0,0.0,0.0,0.0,0.546230405,0.02941995,9.60855567,0.0,0.0,0.0,0.0,0.0,0.0,0.0,0.0,0.0
1704780826144456574,12026,1704780826143997012,imu_link,-0.0017317702864460551,-0.00362253534325555,-0.9113601862281047,-0.4115901956651011,0.0,0.0,0.0,0.0,0.0,0.0,0.0,0.0,0.0,-0.009599310885968814,-0.01780235837034216,-0.09686577348568529,0.0,0.0,0.0,0.0,0.0,0.0,0.0,0.0,0.0,0.395207995,0.28831551,9.930213789999998,0.0,0.0,0.0,0.0,0.0,0.0,0.0,0.0,0.0
1704780826244573013,12027,1704780826244119555,imu_link,-0.0014355229943229266,-0.0025101788729787076,-0.9094505035520207,-0.41580214028397505,0.0,0.0,0.0,0.0,0.0,0.0,0.0,0.0,0.0,-0.027925268031909273,0.020594885173533087,-0.0853466004225227,0.0,0.0,0.0,0.0,0.0,0.0,0.0,0.0,0.0,0.29321883499999996,-0.18828767999999999,10.023376964999999,0.0,0.0,0.0,0.0,0.0,0.0,0.0,0.0,0.0
1704780826343770157,12028,1704780826343350345,imu_link,-4.4531807210769145e-05,-0.0023830894171335865,-0.9076275041319118,-0.41976973764794495,0.0,0.0,0.0,0.0,0.0,0.0,0.0,0.0,0.0,-0.0015707963267948967,0.017627825445142728,-0.09442231253289324,0.0,0.0,0.0,0.0,0.0,0.0,0.0,0.0,0.0,-0.00784532,-0.220649625,9.568348405,0.0,0.0,0.0,0.0,0.0,0.0,0.0,0.0,0.0
1704780826443993216,12029,1704780826443503775,imu_link,0.0014520761429018183,-0.0018370006596445364,-0.9054913177005058,-0.42435832791693057,0.0,0.0,0.0,0.0,0.0,0.0,0.0,0.0,0.0,-0.045727626402251434,0.023736477827122886,-0.10262536001726656,0.0,0.0,0.0,0.0,0.0,0.0,0.0,0.0,0.0,0.033342609999999995,0.28537351499999997,10.164592724999999,0.0,0.0,0.0,0.0,0.0,0.0,0.0,0.0,0.0
1704780826544316946,12030,1704780826543790985,imu_link,0.0033084816605756674,0.0004587866321997967,-0.9034821198836126,-0.4286127652258404,0.0,0.0,0.0,0.0,0.0,0.0,0.0,0.0,0.0,-0.05619960191421742,0.0005235987755982988,-0.08848819307611251,0.0,0.0,0.0,0.0,0.0,0.0,0.0,0.0,0.0,-0.22555294999999997,-0.4932744949999999,9.67327956,0.0,0.0,0.0,0.0,0.0,0.0,0.0,0.0,0.0
1704780826644251215,12031,1704780826643869569,imu_link,0.0033273857472325002,0.0018861659684690673,-0.9012625652693336,-0.43325645907033955,0.0,0.0,0.0,0.0,0.0,0.0,0.0,0.0,0.0,0.0012217304763960308,-0.009599310885968814,-0.1218239817892042,0.0,0.0,0.0,0.0,0.0,0.0,0.0,0.0,0.0,-0.1176798,-0.6648908699999999,9.821359975,0.0,0.0,0.0,0.0,0.0,0.0,0.0,0.0,0.0
1704780826744411657,12032,1704780826743986322,imu_link,0.0025712312480862002,0.0004925762626529364,-0.8986010352161283,-0.43875884680197236,0.0,0.0,0.0,0.0,0.0,0.0,0.0,0.0,0.0,0.01902408884673819,-0.006108652381980153,-0.11501719770642631,0.0,0.0,0.0,0.0,0.0,0.0,0.0,0.0,0.0,-0.07060788,-0.08629852,9.886083865,0.0,0.0,0.0,0.0,0.0,0.0,0.0,0.0,0.0
1704780826844601282,12033,1704780826844211423,imu_link,0.0028100489777591973,-2.8236128926282036e-05,-0.8961360296788513,-0.44377057038394147,0.0,0.0,0.0,0.0,0.0,0.0,0.0,0.0,0.0,-0.005759586531581288,0.018675022996339326,-0.11972958668681102,0.0,0.0,0.0,0.0,0.0,0.0,0.0,0.0,0.0,-0.155925735,0.03530394,9.65758892,0.0,0.0,0.0,0.0,0.0,0.0,0.0,0.0,0.0
1704780826943731127,12034,1704780826943375791,imu_link,0.0029674007354348053,0.0004595184863412235,-0.8930946404498182,-0.44985880737787687,0.0,0.0,0.0,0.0,0.0,0.0,0.0,0.0,0.0,-0.008726646259971648,-0.006108652381980153,-0.14852751934471745,0.0,0.0,0.0,0.0,0.0,0.0,0.0,0.0,0.0,-0.07747253500000001,-0.561921045,10.194012675,0.0,0.0,0.0,0.0,0.0,0.0,0.0,0.0,0.0
1704780827043893154,12035,1704780827043455934,imu_link,0.0030759296274690388,-0.0006959704879012916,-0.889652249868967,-0.45662777903352736,0.0,0.0,0.0,0.0,0.0,0.0,0.0,0.0,0.0,0.029670597283903602,0.023212879051524585,-0.14957471689591406,0.0,0.0,0.0,0.0,0.0,0.0,0.0,0.0,0.0,-0.00196133,-0.283412185,9.474204564999999,0.0,0.0,0.0,0.0,0.0,0.0,0.0,0.0,0.0
1704780827144268766,12036,1704780827143763255,imu_link,0.0031782543260334317,-0.0012663242119160328,-0.886360578927268,-0.4629829578355422,0.0,0.0,0.0,0.0,0.0,0.0,0.0,0.0,0.0,-0.016929693744344998,-0.009773843811168246,-0.14067353771074298,0.0,0.0,0.0,0.0,0.0,0.0,0.0,0.0,0.0,-0.22947561,0.281450855,10.350919075,0.0,0.0,0.0,0.0,0.0,0.0,0.0,0.0,0.0
1704780827244317795,12037,1704780827243919752,imu_link,0.004481704290730119,-0.000308251272469488,-0.8828602210098768,-0.46961436249990796,0.0,0.0,0.0,0.0,0.0,0.0,0.0,0.0,0.0,-0.018675022996339326,0.03752457891787808,-0.15847589608108512,0.0,0.0,0.0,0.0,0.0,0.0,0.0,0.0,0.0,-0.102969825,-0.5982056499999999,9.514411829999998,0.0,0.0,0.0,0.0,0.0,0.0,0.0,0.0,0.0
1704780827343640464,12038,1704780827343005107,imu_link,0.005294414539996535,-0.0004870988326480185,-0.8791840050185038,-0.47645274396211584,0.0,0.0,0.0,0.0,0.0,0.0,0.0,0.0,0.0,0.006806784082777885,-0.0036651914291880917,-0.14608405839192537,0.0,0.0,0.0,0.0,0.0,0.0,0.0,0.0,0.0,-0.0784532,-0.263798885,9.93609778,0.0,0.0,0.0,0.0,0.0,0.0,0.0,0.0,0.0
1704780827443272001,12039,1704780827442838148,imu_link,0.005130062563802034,-0.0006361384188934712,-0.8757102503849016,-0.48280931552406536,0.0,0.0,0.0,0.0,0.0,0.0,0.0,0.0,0.0,-0.016755160819145562,-0.0,-0.1509709802975095,0.0,0.0,0.0,0.0,0.0,0.0,0.0,0.0,0.0,-0.13925443,-0.00392266,9.85960591,0.0,0.0,0.0,0.0,0.0,0.0,0.0,0.0,0.0
1704780827544187953,12040,1704780827543746877,imu_link,0.005884959814256056,0.0004951641787174707,-0.8716345626902319,-0.4901207108297191,0.0,0.0,0.0,0.0,0.0,0.0,0.0,0.0,0.0,-0.03316125578789226,0.007853981633974483,-0.1864011641129944,0.0,0.0,0.0,0.0,0.0,0.0,0.0,0.0,0.0,-0.161809725,-0.661948875,9.750752095,0.0,0.0,0.0,0.0,0.0,0.0,0.0,0.0,0.0
1704780827643999434,12041,1704780827643526431,imu_link,0.006354878107684821,0.0003691160944406368,-0.8666273474403489,-0.49891534346625394,0.0,0.0,0.0,0.0,0.0,0.0,0.0,0.0,0.0,0.02495820830351891,0.008552113334772213,-0.2090904443889207,0.0,0.0,0.0,0.0,0.0,0.0,0.0,0.0,0.0,-0.140235095,-0.73549875,9.894909849999998,0.0,0.0,0.0,0.0,0.0,0.0,0.0,0.0,0.0
1704780827744197794,12042,1704780827743715091,imu_link,0.005468149105162697,-0.0006905396535063944,-0.8614887415333417,-0.5077467584452412,0.0,0.0,0.0,0.0,0.0,0.0,0.0,0.0,0.0,0.021118483949131385,-0.005585053606381855,-0.19739673840055869,0.0,0.0,0.0,0.0,0.0,0.0,0.0,0.0,0.0,-0.14611908499999998,0.038245934999999995,9.792920689999999,0.0,0.0,0.0,0.0,0.0,0.0,0.0,0.0,0.0
1704780827844258686,12043,1704780827843874424,imu_link,0.0056260200142219975,-0.0006390180713169748,-0.8565299704878072,-0.5160662256056486,0.0,0.0,0.0,0.0,0.0,0.0,0.0,0.0,0.0,-0.008377580409572781,-0.0022689280275926286,-0.19355701404617112,0.0,0.0,0.0,0.0,0.0,0.0,0.0,0.0,0.0,-0.29616083,-0.21966896,9.882161205,0.0,0.0,0.0,0.0,0.0,0.0,0.0,0.0,0.0
1704780827943559085,12044,1704780827943130037,imu_link,0.0053342594220547514,0.0005053115456626757,-0.851310116494699,-0.524635469531409,0.0,0.0,0.0,0.0,0.0,0.0,0.0,0.0,0.0,0.006632251157578452,-0.010297442586766544,-0.20804324683772407,0.0,0.0,0.0,0.0,0.0,0.0,0.0,0.0,0.0,0.04412992499999999,-0.695291485,9.69681552,0.0,0.0,0.0,0.0,0.0,0.0,0.0,0.0,0.0
1704780828043576271,12045,1704780828043162322,imu_link,0.005215455234926241,-0.00040108204256321346,-0.8457688850147685,-0.533523787005568,0.0,0.0,0.0,0.0,0.0,0.0,0.0,0.0,0.0,0.02076941809873252,0.007504915783575617,-0.20559978588493202,0.0,0.0,0.0,0.0,0.0,0.0,0.0,0.0,0.0,-0.07354987499999999,-0.240262925,9.99493768,0.0,0.0,0.0,0.0,0.0,0.0,0.0,0.0,0.0
1704780828144028383,12046,1704780828143553900,imu_link,0.005090451430221628,-0.0004803281153008751,-0.8402776511584791,-0.5421322030212994,0.0,0.0,0.0,0.0,0.0,0.0,0.0,0.0,0.0,-0.00942477796076938,0.0038397243543875246,-0.20978857608971838,0.0,0.0,0.0,0.0,0.0,0.0,0.0,0.0,0.0,-0.12944777999999998,-0.12944777999999998,9.691912194999999,0.0,0.0,0.0,0.0,0.0,0.0,0.0,0.0,0.0
1704780828244024147,12047,1704780828243526160,imu_link,0.005686871007560797,0.00021744476011167262,-0.8343620558888976,-0.551187419947854,0.0,0.0,0.0,0.0,0.0,0.0,0.0,0.0,0.0,-0.01832595714594046,-0.0036651914291880917,-0.22130774915288098,0.0,0.0,0.0,0.0,0.0,0.0,0.0,0.0,0.0,-0.09316317499999999,-0.5079844699999999,9.59678769,0.0,0.0,0.0,0.0,0.0,0.0,0.0,0.0,0.0
1704780828343210748,12048,1704780828342685821,imu_link,0.005909916372694483,0.0006385063700804989,-0.8283489478461917,-0.5601809402328771,0.0,0.0,0.0,0.0,0.0,0.0,0.0,0.0,0.0,0.00645771823237902,0.0005235987755982988,-0.2082177797629235,0.0,0.0,0.0,0.0,0.0,0.0,0.0,0.0,0.0,-0.15298373999999998,-0.49425515999999997,10.185186689999998,0.0,0.0,0.0,0.0,0.0,0.0,0.0,0.0,0.0
1704780828443287780,12049,1704780828442883729,imu_link,0.0054139719610910055,0.0009236035855454522,-0.8223885398016321,-0.5688997499269627,0.0,0.0,0.0,0.0,0.0,0.0,0.0,0.0,0.0,0.009075712110370514,-0.002617993877991494,-0.21223203704251045,0.0,0.0,0.0,0.0,0.0,0.0,0.0,0.0,0.0,-0.012748645,-0.197113665,9.454591265,0.0,0.0,0.0,0.0,0.0,0.0,0.0,0.0,0.0
1704780828543708236,12050,1704780828543238786,imu_link,0.0061529012605548855,0.0009935466135634762,-0.8165361124065125,-0.5772607138956054,0.0,0.0,0.0,0.0,0.0,0.0,0.0,0.0,0.0,-0.008552113334772213,0.010821041362364843,-0.1898918226169831,0.0,0.0,0.0,0.0,0.0,0.0,0.0,0.0,0.0,-0.17651969999999997,-0.267721545,10.19695467,0.0,0.0,0.0,0.0,0.0,0.0,0.0,0.0,0.0
1704780828643677590,12051,1704780828643232540,imu_link,0.006538578750495542,0.0013114183597924202,-0.811262874266551,-0.5846435461087236,0.0,0.0,0.0,0.0,0.0,0.0,0.0,0.0,0.0,-0.005585053606381855,0.007853981633974483,-0.18133970928221083,0.0,0.0,0.0,0.0,0.0,0.0,0.0,0.0,0.0,-0.00392266,-0.4550285599999999,9.62620764,0.0,0.0,0.0,0.0,0.0,0.0,0.0,0.0,0.0
1704780828742853310,12052,1704780828742492971,imu_link,0.006310509244350647,0.0007789300598162875,-0.805975623807366,-0.5919145753986517,0.0,0.0,0.0,0.0,0.0,0.0,0.0,0.0,0.0,0.017627825445142728,-0.00890117918517108,-0.18151424220741028,0.0,0.0,0.0,0.0,0.0,0.0,0.0,0.0,0.0,-0.24222425499999997,-0.42266661499999997,10.014550980000001,0.0,0.0,0.0,0.0,0.0,0.0,0.0,0.0,0.0
1704780828843018238,12053,1704780828842600230,imu_link,0.005183293397022389,0.0003705738030524365,-0.8004670587862973,-0.5993542224282993,0.0,0.0,0.0,0.0,0.0,0.0,0.0,0.0,0.0,0.02530727415391778,-0.0036651914291880917,-0.18186330805780915,0.0,0.0,0.0,0.0,0.0,0.0,0.0,0.0,0.0,-0.11964113,-0.17848102999999998,9.659550249999999,0.0,0.0,0.0,0.0,0.0,0.0,0.0,0.0,0.0
1704780828943745947,12054,1704780828943177930,imu_link,0.00481606183876249,-0.00015707431568761114,-0.7956294455805668,-0.6057644477857581,0.0,0.0,0.0,0.0,0.0,0.0,0.0,0.0,0.0,0.007853981633974483,-0.007853981633974483,-0.14206980111233844,0.0,0.0,0.0,0.0,0.0,0.0,0.0,0.0,0.0,-0.09904716499999999,-0.07649186999999999,9.69877685,0.0,0.0,0.0,0.0,0.0,0.0,0.0,0.0,0.0
1704780829043423596,12055,1704780829042920336,imu_link,0.004667426993003638,0.0004726644508205621,-0.7911148709851176,-0.611649615891143,0.0,0.0,0.0,0.0,0.0,0.0,0.0,0.0,0.0,-0.011519173063162576,-0.0006981317007977319,-0.16004669240788,0.0,0.0,0.0,0.0,0.0,0.0,0.0,0.0,0.0,0.004903325,-0.38442067999999996,10.201857995,0.0,0.0,0.0,0.0,0.0,0.0,0.0,0.0,0.0
1704780829143695565,12056,1704780829143247161,imu_link,0.0046611699219106534,-5.110938226585409e-06,-0.785638931565599,-0.6186677158841418,0.0,0.0,0.0,0.0,0.0,0.0,0.0,0.0,0.0,0.02722713633111154,-0.00034906585039886593,-0.18605209826259553,0.0,0.0,0.0,0.0,0.0,0.0,0.0,0.0,0.0,-0.06374322499999999,-0.383440015,9.421248655,0.0,0.0,0.0,0.0,0.0,0.0,0.0,0.0,0.0
1704780829243602522,12057,1704780829243142915,imu_link,0.004442708251608366,-0.0008734193972685892,-0.7807003548555905,-0.6248891544988621,0.0,0.0,0.0,0.0,0.0,0.0,0.0,0.0,0.0,0.003490658503988659,0.024609142453120045,-0.12688543661998775,0.0,0.0,0.0,0.0,0.0,0.0,0.0,0.0,0.0,0.06864655,0.43541525999999997,9.989053689999999,0.0,0.0,0.0,0.0,0.0,0.0,0.0,0.0,0.0
1704780829342557381,12058,1704780829342301938,imu_link,0.005241831134536404,-0.0008765815279251914,-0.777087711347048,-0.6293698782787344,0.0,0.0,0.0,0.0,0.0,0.0,0.0,0.0,0.0,-0.010995574287564275,-0.0041887902047863905,-0.11676252695842064,0.0,0.0,0.0,0.0,0.0,0.0,0.0,0.0,0.0,-0.10198916,-0.38834334,9.63209163,0.0,0.0,0.0,0.0,0.0,0.0,0.0,0.0,0.0
1704780829443119933,12059,1704780829442642976,imu_link,0.0059232715403349425,-0.001584777476913889,-0.7732262349839077,-0.6341006173055023,0.0,0.0,0.0,0.0,0.0,0.0,0.0,0.0,0.0,0.02565634000431664,0.04153883619746504,-0.11885692206081383,0.0,0.0,0.0,0.0,0.0,0.0,0.0,0.0,0.0,-0.0980665,-0.30204482,9.853721919999998,0.0,0.0,0.0,0.0,0.0,0.0,0.0,0.0,0.0
1704780829543291381,12060,1704780829542801780,imu_link,0.005439304833386843,-0.0031463340072929342,-0.7700569806059728,-0.6379441677492288,0.0,0.0,0.0,0.0,0.0,0.0,0.0,0.0,0.0,0.021642082724729686,-0.015009831567151233,-0.09005898940290741,0.0,0.0,0.0,0.0,0.0,0.0,0.0,0.0,0.0,-0.26870221,0.030400614999999995,9.964537065,0.0,0.0,0.0,0.0,0.0,0.0,0.0,0.0,0.0
1704780829643334286,12061,1704780829642955789,imu_link,0.005123436897247306,-0.0032594249686128435,-0.7672100287243314,-0.6413672102376644,0.0,0.0,0.0,0.0,0.0,0.0,0.0,0.0,0.0,-0.015184364492350668,0.017976891295541593,-0.08901179185171079,0.0,0.0,0.0,0.0,0.0,0.0,0.0,0.0,0.0,-0.05295591,0.17063570999999997,9.88706453,0.0,0.0,0.0,0.0,0.0,0.0,0.0,0.0,0.0
1704780829743047635,12062,1704780829742528600,imu_link,0.006362804589026936,-0.002743908613976202,-0.7641804577313397,-0.6449652810072805,0.0,0.0,0.0,0.0,0.0,0.0,0.0,0.0,0.0,-0.02600540585471551,-0.0,-0.09407324668249435,0.0,0.0,0.0,0.0,0.0,0.0,0.0,0.0,0.0,-0.18730701499999997,-0.373633365,9.66347291,0.0,0.0,0.0,0.0,0.0,0.0,0.0,0.0,0.0
1704780829842829348,12063,1704780829842347298,imu_link,0.006237622868568912,-0.0029045274468368974,-0.7613585209673165,-0.6482945768180701,0.0,0.0,0.0,0.0,0.0,0.0,0.0,0.0,0.0,0.017104226669544427,0.004537856055185257,-0.08272860654453122,0.0,0.0,0.0,0.0,0.0,0.0,0.0,0.0,0.0,-0.13631243499999998,-0.375594695,9.57913572,0.0,0.0,0.0,0.0,0.0,0.0,0.0,0.0,0.0
1704780829943010464,12064,1704780829942612805,imu_link,0.00628150133677385,-0.003668971733246966,-0.7586323583856632,-0.6514783390087372,0.0,0.0,0.0,0.0,0.0,0.0,0.0,0.0,0.0,0.004537856055185257,0.015009831567151233,-0.08377580409572781,0.0,0.0,0.0,0.0,0.0,0.0,0.0,0.0,0.0,-0.12748644999999997,0.21084297499999996,10.185186689999998,0.0,0.0,0.0,0.0,0.0,0.0,0.0,0.0,0.0
1704780830042962224,12065,1704780830042576657,imu_link,0.006780507531163105,-0.0031009786342789496,-0.7559566054671897,-0.6545792689198562,0.0,0.0,0.0,0.0,0.0,0.0,0.0,0.0,0.0,-0.024434609527920613,-0.010471975511965976,-0.08080874436733745,0.0,0.0,0.0,0.0,0.0,0.0,0.0,0.0,0.0,-0.132389775,-0.142196425,9.45949459,0.0,0.0,0.0,0.0,0.0,0.0,0.0,0.0,0.0
1704780830143207346,12066,1704780830142772785,imu_link,0.006660511297550246,-0.0024551382585730214,-0.753325858817012,-0.6576091242698796,0.0,0.0,0.0,0.0,0.0,0.0,0.0,0.0,0.0,0.014660765716752367,-0.011344640137963142,-0.07714355293814937,0.0,0.0,0.0,0.0,0.0,0.0,0.0,0.0,0.0,-0.234378935,-0.4932744949999999,10.18322536,0.0,0.0,0.0,0.0,0.0,0.0,0.0,0.0,0.0
1704780830243342883,12067,1704780830242975244,imu_link,0.005096673609136616,-0.003322959157881022,-0.7506773886183955,-0.6606409312763049,0.0,0.0,0.0,0.0,0.0,0.0,0.0,0.0,0.0,0.023561944901923447,0.0027925268031909274,-0.08639379797371932,0.0,0.0,0.0,0.0,0.0,0.0,0.0,0.0,0.0,0.023535959999999998,0.03138128,9.5124505,0.0,0.0,0.0,0.0,0.0,0.0,0.0,0.0,0.0
1704780830342764341,12068,1704780830342242743,imu_link,0.005429315046824992,-0.004005857821756705,-0.7476099085392106,-0.6641038324653966,0.0,0.0,0.0,0.0,0.0,0.0,0.0,0.0,0.0,-0.019547687622336492,-0.0024434609527920616,-0.09128071987930345,0.0,0.0,0.0,0.0,0.0,0.0,0.0,0.0,0.0,-0.20593965,0.330484105,10.070448885,0.0,0.0,0.0,0.0,0.0,0.0,0.0,0.0,0.0
1704780830442788302,12069,1704780830442345301,imu_link,0.005015721074189924,-0.0023762506889098787,-0.7455864821723289,-0.666385769338347,0.0,0.0,0.0,0.0,0.0,0.0,0.0,0.0,0.0,-0.01658062789394613,-0.02530727415391778,-0.034557519189487726,0.0,0.0,0.0,0.0,0.0,0.0,0.0,0.0,0.0,-0.14709974999999997,-0.28635417999999996,9.817437315000001,0.0,0.0,0.0,0.0,0.0,0.0,0.0,0.0,0.0
1704780830543061276,12070,1704780830542558996,imu_link,0.00438297660595943,-0.002170105125514849,-0.7447145400167707,-0.6673652178885451,0.0,0.0,0.0,0.0,0.0,0.0,0.0,0.0,0.0,0.020245819323134222,-0.017453292519943295,-0.026529004630313806,0.0,0.0,0.0,0.0,0.0,0.0,0.0,0.0,0.0,-0.173577705,-0.0029419949999999998,9.649743599999999,0.0,0.0,0.0,0.0,0.0,0.0,0.0,0.0,0.0
1704780830643097022,12071,1704780830642626567,imu_link,0.003392910627141121,-0.0010556823180778128,-0.7436103277141402,-0.668603809598172,0.0,0.0,0.0,0.0,0.0,0.0,0.0,0.0,0.0,-0.01308996938995747,-0.020245819323134222,-0.032463124087094536,0.0,0.0,0.0,0.0,0.0,0.0,0.0,0.0,0.0,-0.00392266,0.20299765499999997,10.060642235,0.0,0.0,0.0,0.0,0.0,0.0,0.0,0.0,0.0
1704780830742611784,12072,1704780830742110884,imu_link,0.003411700047965372,-0.0002552226465777625,-0.7428523167477001,-0.669446585372394,0.0,0.0,0.0,0.0,0.0,0.0,0.0,0.0,0.0,-0.008203047484373348,-0.014137166941154071,-0.011344640137963142,0.0,0.0,0.0,0.0,0.0,0.0,0.0,0.0,0.0,-0.0,-0.17063570999999997,9.636994955,0.0,0.0,0.0,0.0,0.0,0.0,0.0,0.0,0.0
1704780830842479422,12073,1704780830842098797,imu_link,0.003411677703020884,-0.0002555211680531028,-0.7427937375832216,-0.669511582103948,0.0,0.0,0.0,0.0,0.0,0.0,0.0,0.0,0.0,0.02129301687433082,0.022514747350726852,0.0024434609527920616,0.0,0.0,0.0,0.0,0.0,0.0,0.0,0.0,0.0,0.1176798,-0.07354987499999999,10.007686325,0.0,0.0,0.0,0.0,0.0,0.0,0.0,0.0,0.0
1704780830942578490,12074,1704780830942174514,imu_link,0.0034500441476324525,-0.0009950063367193203,-0.7427928986635212,-0.6695116256293188,0.0,0.0,0.0,0.0,0.0,0.0,0.0,0.0,0.0,-0.008203047484373348,-0.005061454830783556,-0.0017453292519943296,0.0,0.0,0.0,0.0,0.0,0.0,0.0,0.0,0.0,0.37069136999999996,0.30792880999999994,9.407519344999999,0.0,0.0,0.0,0.0,0.0,0.0,0.0,0.0,0.0
1704780831042736444,12075,1704780831042302684,imu_link,0.0044104722082773445,-0.0004504758694276049,-0.7428518414377866,-0.6694411747710776,0.0,0.0,0.0,0.0,0.0,0.0,0.0,0.0,0.0,-0.01308996938995747,0.01780235837034216,0.005235987755982988,0.0,0.0,0.0,0.0,0.0,0.0,0.0,0.0,0.0,0.230456275,-0.20495898499999998,9.869412559999999,0.0,0.0,0.0,0.0,0.0,0.0,0.0,0.0,0.0
1704780831142883704,12076,1704780831142521222,imu_link,0.0049939805071523916,-0.0009758286321894323,-0.7429093144448828,-0.669372735049919,0.0,0.0,0.0,0.0,0.0,0.0,0.0,0.0,0.0,0.012217304763960306,0.00715584993317675,-0.00017453292519943296,0.0,0.0,0.0,0.0,0.0,0.0,0.0,0.0,0.0,0.34127141999999994,-0.155925735,10.17341871,0.0,0.0,0.0,0.0,0.0,0.0,0.0,0.0,0.0
1704780831242796548,12077,1704780831242300881,imu_link,0.004481402004158087,-0.0018050180575941571,-0.7430244619479636,-0.6692468213542954,0.0,0.0,0.0,0.0,0.0,0.0,0.0,0.0,0.0,0.017104226669544427,0.01117010721276371,0.005759586531581288,0.0,0.0,0.0,0.0,0.0,0.0,0.0,0.0,0.0,0.554075725,0.020593965,9.132933144999999,0.0,0.0,0.0,0.0,0.0,0.0,0.0,0.0,0.0
1704780831343087666,12078,1704780831342541697,imu_link,0.0053183103180890505,-0.0024400930957614577,-0.7431386878702004,-0.669111838268911,0.0,0.0,0.0,0.0,0.0,0.0,0.0,0.0,0.0,-0.013264502315156903,0.020420352248333655,0.00471238898038469,0.0,0.0,0.0,0.0,0.0,0.0,0.0,0.0,0.0,0.497197155,0.17553903499999998,10.360725725,0.0,0.0,0.0,0.0,0.0,0.0,0.0,0.0,0.0
1704780831442484290,12079,1704780831442081009,imu_link,0.0056370107796271385,-0.0026068436358466446,-0.7433713358843017,-0.66885012182201,0.0,0.0,0.0,0.0,0.0,0.0,0.0,0.0,0.0,0.016406094968746697,-0.0010471975511965976,0.0027925268031909274,0.0,0.0,0.0,0.0,0.0,0.0,0.0,0.0,0.0,0.157887065,-0.48444850999999994,9.74584877,0.0,0.0,0.0,0.0,0.0,0.0,0.0,0.0,0.0
1704780831542336798,12080,1704780831541815931,imu_link,0.004650403330048052,-0.0026600757981288235,-0.7431965822726231,-0.6690516705336804,0.0,0.0,0.0,0.0,0.0,0.0,0.0,0.0,0.0,0.0022689280275926286,-0.02583087292951608,-0.015358897417550098,0.0,0.0,0.0,0.0,0.0,0.0,0.0,0.0,0.0,0.05687856999999999,0.12356378999999999,9.60463301,0.0,0.0,0.0,0.0,0.0,0.0,0.0,0.0,0.0
1704780831642889645,12081,1704780831642433615,imu_link,0.004569315144675094,-0.0023615866087838304,-0.7422627989302685,-0.6700891594347739,0.0,0.0,0.0,0.0,0.0,0.0,0.0,0.0,0.0,-0.029670597283903602,0.011344640137963142,-0.03944444109507184,0.0,0.0,0.0,0.0,0.0,0.0,0.0,0.0,0.0,-0.00784532,-0.29223816999999996,10.01651231,0.0,0.0,0.0,0.0,0.0,0.0,0.0,0.0,0.0
1704780831741951962,12082,1704780831741578719,imu_link,0.0052134126044953814,-0.0017882473723299637,-0.7402143879038118,-0.6723483341546521,0.0,0.0,0.0,0.0,0.0,0.0,0.0,0.0,0.0,0.0015707963267948967,-0.011519173063162576,-0.08028514559173915,0.0,0.0,0.0,0.0,0.0,0.0,0.0,0.0,0.0,-0.038245934999999995,-0.59232166,9.592865029999999,0.0,0.0,0.0,0.0,0.0,0.0,0.0,0.0,0.0
1704780831841991316,12083,1704780831841657143,imu_link,0.004873324794279063,-0.0012687564012838035,-0.7373928995166077,-0.6754452995655044,0.0,0.0,0.0,0.0,0.0,0.0,0.0,0.0,0.0,0.0054105206811824215,-0.005061454830783556,-0.07871434926494426,0.0,0.0,0.0,0.0,0.0,0.0,0.0,0.0,0.0,0.04412992499999999,0.022555295,9.513431164999998,0.0,0.0,0.0,0.0,0.0,0.0,0.0,0.0,0.0
1704780831942419541,12084,1704780831941879542,imu_link,0.00533734823373618,-0.0006483656467283481,-0.7351500026141166,-0.6778831506921266,0.0,0.0,0.0,0.0,0.0,0.0,0.0,0.0,0.0,-0.00645771823237902,-0.026878070480712675,-0.05881759579220891,0.0,0.0,0.0,0.0,0.0,0.0,0.0,0.0,0.0,-0.43933792,-0.26576021499999997,10.418584959999999,0.0,0.0,0.0,0.0,0.0,0.0,0.0,0.0,0.0
1704780832042226180,12085,1704780832041966407,imu_link,0.004275505602699877,-0.000395983182322179,-0.7330172866087526,-0.6801964574899684,0.0,0.0,0.0,0.0,0.0,0.0,0.0,0.0,0.0,0.035255650890285456,0.016406094968746697,-0.06824237375297829,0.0,0.0,0.0,0.0,0.0,0.0,0.0,0.0,0.0,-0.053936574999999994,-0.467777205,9.509508505,0.0,0.0,0.0,0.0,0.0,0.0,0.0,0.0,0.0
1704780832142840226,12086,1704780832142304233,imu_link,0.0037254986031188667,-0.002403321548408447,-0.7309916520068639,-0.682372002211381,0.0,0.0,0.0,0.0,0.0,0.0,0.0,0.0,0.0,0.028797932657906436,-0.009773843811168246,-0.04625122517784973,0.0,0.0,0.0,0.0,0.0,0.0,0.0,0.0,0.0,-0.14709974999999997,0.41776328999999995,9.95767241,0.0,0.0,0.0,0.0,0.0,0.0,0.0,0.0,0.0
1704780832242788318,12087,1704780832242395061,imu_link,0.003463239406486817,-0.0020466245050751414,-0.7300394938387077,-0.6833931187366991,0.0,0.0,0.0,0.0,0.0,0.0,0.0,0.0,0.0,-0.02897246558310587,0.00645771823237902,-0.015707963267948967,0.0,0.0,0.0,0.0,0.0,0.0,0.0,0.0,0.0,-0.012748645,0.29125750499999997,10.067506889999999,0.0,0.0,0.0,0.0,0.0,0.0,0.0,0.0,0.0
1704780832342102726,12088,1704780832341720265,imu_link,0.004050148368328151,-0.0011674481256919735,-0.7292656299241707,-0.6842177097783795,0.0,0.0,0.0,0.0,0.0,0.0,0.0,0.0,0.0,-0.012391837689159739,-0.013264502315156903,-0.03682644721708035,0.0,0.0,0.0,0.0,0.0,0.0,0.0,0.0,0.0,-0.06668521999999999,-0.520733115,9.574232395,0.0,0.0,0.0,0.0,0.0,0.0,0.0,0.0,0.0
1704780832442011172,12089,1704780832441664143,imu_link,0.004125594756365652,-0.0017299246883527354,-0.7277101614917678,-0.6858701828262429,0.0,0.0,0.0,0.0,0.0,0.0,0.0,0.0,0.0,-0.005934119456780722,0.026878070480712675,-0.046949356878647465,0.0,0.0,0.0,0.0,0.0,0.0,0.0,0.0,0.0,-0.10198916,0.12748644999999997,10.319537794999999,0.0,0.0,0.0,0.0,0.0,0.0,0.0,0.0,0.0
1704780832542158906,12090,1704780832541814205,imu_link,0.004879720042529718,-0.00233376391624474,-0.7264499164783599,-0.687198123343533,0.0,0.0,0.0,0.0,0.0,0.0,0.0,0.0,0.0,-0.01902408884673819,0.013439035240356337,-0.035953782591083186,0.0,0.0,0.0,0.0,0.0,0.0,0.0,0.0,0.0,-0.17651969999999997,-0.047071919999999996,9.11626184,0.0,0.0,0.0,0.0,0.0,0.0,0.0,0.0,0.0
1704780832642348887,12091,1704780832642023761,imu_link,0.005668280483467475,-0.0020164533503192177,-0.7248296860812045,-0.6889018294994355,0.0,0.0,0.0,0.0,0.0,0.0,0.0,0.0,0.0,-0.006632251157578452,0.00034906585039886593,-0.05811946409141117,0.0,0.0,0.0,0.0,0.0,0.0,0.0,0.0,0.0,-0.07256921,-0.361865385,10.268543215,0.0,0.0,0.0,0.0,0.0,0.0,0.0,0.0,0.0
1704780832742089928,12092,1704780832741636843,imu_link,0.005972284142612454,-0.002087513914488585,-0.722842495861044,-0.6909838639832,0.0,0.0,0.0,0.0,0.0,0.0,0.0,0.0,0.0,-0.009250245035569947,0.005235987755982988,-0.05044001538263612,0.0,0.0,0.0,0.0,0.0,0.0,0.0,0.0,0.0,-0.06864655,-0.08237586,9.58894237,0.0,0.0,0.0,0.0,0.0,0.0,0.0,0.0,0.0
1704780832841801433,12093,1704780832841401720,imu_link,0.006777388413657682,-0.0025190423215975684,-0.7210293420678489,-0.6928668048833609,0.0,0.0,0.0,0.0,0.0,0.0,0.0,0.0,0.0,-0.003490658503988659,0.028797932657906436,-0.059341194567807204,0.0,0.0,0.0,0.0,0.0,0.0,0.0,0.0,0.0,-0.20593965,-0.37951735499999995,10.415642965,0.0,0.0,0.0,0.0,0.0,0.0,0.0,0.0,0.0
1704780832942169255,12094,1704780832941636958,imu_link,0.006409952835917941,-0.0032902511771328267,-0.7184818928473499,-0.6955083438768525,0.0,0.0,0.0,0.0,0.0,0.0,0.0,0.0,0.0,0.019198621771937627,-0.009599310885968814,-0.08587019919812101,0.0,0.0,0.0,0.0,0.0,0.0,0.0,0.0,0.0,-0.21574629999999997,-0.23143693999999998,9.078015904999999,0.0,0.0,0.0,0.0,0.0,0.0,0.0,0.0,0.0
1704780833042307785,12095,1704780833041843138,imu_link,0.006463669870610197,-0.0037471109042596287,-0.715681952815517,-0.6983863705327039,0.0,0.0,0.0,0.0,0.0,0.0,0.0,0.0,0.0,0.005934119456780722,0.012042771838760872,-0.06841690667817771,0.0,0.0,0.0,0.0,0.0,0.0,0.0,0.0,0.0,-0.144157755,0.16279038999999998,10.415642965,0.0,0.0,0.0,0.0,0.0,0.0,0.0,0.0,0.0
1704780833142319052,12096,1704780833141876025,imu_link,0.00626726964134908,-0.0035801398894353517,-0.713913337561986,-0.7001968654462262,0.0,0.0,0.0,0.0,0.0,0.0,0.0,0.0,0.0,-0.015358897417550098,-0.008726646259971648,-0.03961897402027128,0.0,0.0,0.0,0.0,0.0,0.0,0.0,0.0,0.0,-0.04511059,-0.18632634999999997,9.472243234999999,0.0,0.0,0.0,0.0,0.0,0.0,0.0,0.0,0.0
1704780833242538870,12097,1704780833242082927,imu_link,0.006258517680903501,-0.0034703967627289717,-0.7123845968444273,-0.7017527865862379,0.0,0.0,0.0,0.0,0.0,0.0,0.0,0.0,0.0,-0.0013962634015954637,0.0012217304763960308,-0.053407075111026485,0.0,0.0,0.0,0.0,0.0,0.0,0.0,0.0,0.0,-0.41776328999999995,-0.14513842,10.044951594999999,0.0,0.0,0.0,0.0,0.0,0.0,0.0,0.0,0.0
1704780833341769161,12098,1704780833341336106,imu_link,0.006679854243313544,-0.0033007077716841063,-0.7104231547943514,-0.7037353380408967,0.0,0.0,0.0,0.0,0.0,0.0,0.0,0.0,0.0,-0.006806784082777885,0.022863813201125717,-0.046949356878647465,0.0,0.0,0.0,0.0,0.0,0.0,0.0,0.0,0.0,-1.5925999599999998,-0.057859234999999995,9.788017365,0.0,0.0,0.0,0.0,0.0,0.0,0.0,0.0,0.0
1704780833441859120,12099,1704780833441400872,imu_link,0.006486727824288887,-0.0026347127048195512,-0.7091350878226986,-0.7050378769043477,0.0,0.0,0.0,0.0,0.0,0.0,0.0,0.0,0.0,0.00017453292519943296,-0.03368485456349056,-0.032114058236695664,0.0,0.0,0.0,0.0,0.0,0.0,0.0,0.0,0.0,-1.2101406099999998,-0.173577705,9.642878945,0.0,0.0,0.0,0.0,0.0,0.0,0.0,0.0,0.0
1704780833542019944,12100,1704780833541616009,imu_link,0.006049980071464848,-0.0024614010333124897,-0.7079042342413828,-0.7062782273220729,0.0,0.0,0.0,0.0,0.0,0.0,0.0,0.0,0.0,-0.0012217304763960308,-0.006108652381980153,-0.03316125578789226,0.0,0.0,0.0,0.0,0.0,0.0,0.0,0.0,0.0,-0.583495675,0.173577705,10.09496551,0.0,0.0,0.0,0.0,0.0,0.0,0.0,0.0,0.0
1704780833642248736,12101,1704780833641770507,imu_link,0.006047473903657686,-0.001109137574657382,-0.7072909249881881,-0.7068958518074485,0.0,0.0,0.0,0.0,0.0,0.0,0.0,0.0,0.0,-0.023561944901923447,-0.0013962634015954637,-0.002967059728390361,0.0,0.0,0.0,0.0,0.0,0.0,0.0,0.0,0.0,-0.196133,0.07453053999999999,9.41634533,0.0,0.0,0.0,0.0,0.0,0.0,0.0,0.0,0.0
1704780833741628521,12102,1704780833741140015,imu_link,0.006417710762720626,-0.0008616541621773682,-0.7073529503718153,-0.7068308667149157,0.0,0.0,0.0,0.0,0.0,0.0,0.0,0.0,0.0,0.007504915783575617,-0.026703537555513242,-0.006806784082777885,0.0,0.0,0.0,0.0,0.0,0.0,0.0,0.0,0.0,-0.34911674,-0.5707470299999999,10.203819325,0.0,0.0,0.0,0.0,0.0,0.0,0.0,0.0,0.0
1704780833841596739,12103,1704780833841118606,imu_link,-0.005182939627513573,0.0008661553482182333,0.7067976609164416,0.7073962492371423,0.0,0.0,0.0,0.0,0.0,0.0,0.0,0.0,0.0,0.012566370614359173,0.02234021442552742,-0.016057029118347832,0.0,0.0,0.0,0.0,0.0,0.0,0.0,0.0,0.0,0.34421341499999997,0.240262925,9.731138795,0.0,0.0,0.0,0.0,0.0,0.0,0.0,0.0,0.0
1704780833941347501,12104,1704780833940891773,imu_link,-0.005922609674651763,0.0014856118839410588,0.7065496714057534,0.7076371086145737,0.0,0.0,0.0,0.0,0.0,0.0,0.0,0.0,0.0,-0.00890117918517108,-0.017104226669544427,-0.0006981317007977319,0.0,0.0,0.0,0.0,0.0,0.0,0.0,0.0,0.0,-0.04511059,-0.09316317499999999,9.95767241,0.0,0.0,0.0,0.0,0.0,0.0,0.0,0.0,0.0
1704780834041902312,12105,1704780834041427934,imu_link,-0.005984343928625232,0.0009329122904812798,0.7062417849110845,0.7079448132079277,0.0,0.0,0.0,0.0,0.0,0.0,0.0,0.0,0.0,-0.00645771823237902,0.03089232776029963,-0.016057029118347832,0.0,0.0,0.0,0.0,0.0,0.0,0.0,0.0,0.0,0.24908890999999997,-0.09218251,9.803708004999999,0.0,0.0,0.0,0.0,0.0,0.0,0.0,0.0,0.0
1704780834141907482,12106,1704780834141548049,imu_link,-0.006907637014132823,0.0018638609590486991,0.7058073923888062,0.7083676555451414,0.0,0.0,0.0,0.0,0.0,0.0,0.0,0.0,0.0,0.007679448708775049,-0.00942477796076938,-0.00715584993317675,0.0,0.0,0.0,0.0,0.0,0.0,0.0,0.0,0.0,-0.16082906,-0.161809725,9.700738179999998,0.0,0.0,0.0,0.0,0.0,0.0,0.0,0.0,0.0
1704780834241849071,12107,1704780834241385948,imu_link,-0.006230034396713378,0.0011843898130259305,0.7057470120185962,0.7084355573508503,0.0,0.0,0.0,0.0,0.0,0.0,0.0,0.0,0.0,-0.0024434609527920616,-0.0013962634015954637,-0.0010471975511965976,0.0,0.0,0.0,0.0,0.0,0.0,0.0,0.0,0.0,0.11081514499999999,0.050013915,10.086139524999998,0.0,0.0,0.0,0.0,0.0,0.0,0.0,0.0,0.0
1704780834341758026,12108,1704780834341269109,imu_link,-0.006477276953251921,0.0008168856175886823,0.705500200337183,0.7086796489990052,0.0,0.0,0.0,0.0,0.0,0.0,0.0,0.0,0.0,-0.0017453292519943296,-0.006806784082777885,-0.009773843811168246,0.0,0.0,0.0,0.0,0.0,0.0,0.0,0.0,0.0,-0.03138128,-0.222610955,9.536967125,0.0,0.0,0.0,0.0,0.0,0.0,0.0,0.0,0.0
1704780834441313821,12109,1704780834441020662,imu_link,-0.006598991929555723,0.0013136967997716834,0.7051901841018592,0.7089862704965576,0.0,0.0,0.0,0.0,0.0,0.0,0.0,0.0,0.0,0.016406094968746697,0.016929693744344998,-0.009250245035569947,0.0,0.0,0.0,0.0,0.0,0.0,0.0,0.0,0.0,-0.10885381499999999,-0.21868829499999998,10.052796914999998,0.0,0.0,0.0,0.0,0.0,0.0,0.0,0.0,0.0
1704780834541698498,12110,1704780834541142789,imu_link,-0.006473617662293268,0.0018092734752292493,0.704941577850691,0.7092335233343334,0.0,0.0,0.0,0.0,0.0,0.0,0.0,0.0,0.0,0.002967059728390361,0.007330382858376183,-0.00471238898038469,0.0,0.0,0.0,0.0,0.0,0.0,0.0,0.0,0.0,-0.16671305,0.13042844499999998,9.611497665,0.0,0.0,0.0,0.0,0.0,0.0,0.0,0.0,0.0
1704780834643191644,12111,1704780834642760845,imu_link,-0.007213007079790362,0.0019374653500715687,0.7046936669260075,0.709472377581581,0.0,0.0,0.0,0.0,0.0,0.0,0.0,0.0,0.0,-0.004886921905584123,0.00471238898038469,-0.009948376736367677,0.0,0.0,0.0,0.0,0.0,0.0,0.0,0.0,0.0,-0.30989014000000004,-0.18534568499999998,9.793901355,0.0,0.0,0.0,0.0,0.0,0.0,0.0,0.0,0.0
1704780834741391265,12112,1704780834741036454,imu_link,-0.007029437703331233,0.0012623615804857,0.7042616464640372,0.7099045899052763,0.0,0.0,0.0,0.0,0.0,0.0,0.0,0.0,0.0,-0.009599310885968814,-0.018675022996339326,-0.008552113334772213,0.0,0.0,0.0,0.0,0.0,0.0,0.0,0.0,0.0,-0.22555294999999997,0.051975244999999996,10.123404794999999,0.0,0.0,0.0,0.0,0.0,0.0,0.0,0.0,0.0
1704780834841507311,12113,1704780834841110877,imu_link,-0.006848483064005886,0.0002144065251286193,0.7040768146847491,0.710090762743004,0.0,0.0,0.0,0.0,0.0,0.0,0.0,0.0,0.0,0.00034906585039886593,-0.017976891295541593,-0.007679448708775049,0.0,0.0,0.0,0.0,0.0,0.0,0.0,0.0,0.0,-0.024516625,-0.306948145,9.12999115,0.0,0.0,0.0,0.0,0.0,0.0,0.0,0.0,0.0
1704780834941425595,12114,1704780834941012216,imu_link,-0.006787546910948787,3.435515394549504e-05,0.703518915062378,0.7106441192158771,0.0,0.0,0.0,0.0,0.0,0.0,0.0,0.0,0.0,0.01064650843716541,-0.0012217304763960308,-0.0158824961931484,0.0,0.0,0.0,0.0,0.0,0.0,0.0,0.0,0.0,-0.014709975,-0.0784532,10.773585689999999,0.0,0.0,0.0,0.0,0.0,0.0,0.0,0.0,0.0
1704780835042050219,12115,1704780835041612724,imu_link,-0.006230446259415409,0.0003438801190373624,0.7030845794317866,0.7110788545942709,0.0,0.0,0.0,0.0,0.0,0.0,0.0,0.0,0.0,0.0054105206811824215,-0.003490658503988659,-0.01064650843716541,0.0,0.0,0.0,0.0,0.0,0.0,0.0,0.0,0.0,0.29518016499999994,-0.10493115499999998,9.091745215,0.0,0.0,0.0,0.0,0.0,0.0,0.0,0.0,0.0
1704780835141122266,12116,1704780835140712603,imu_link,-0.006415605939289052,0.0002899427549358782,0.7023395895861712,0.7118130771723423,0.0,0.0,0.0,0.0,0.0,0.0,0.0,0.0,0.0,-0.011344640137963142,-0.00034906585039886593,-0.02949606435870417,0.0,0.0,0.0,0.0,0.0,0.0,0.0,0.0,0.0,0.31773545999999997,-0.04412992499999999,10.452908235,0.0,0.0,0.0,0.0,0.0,0.0,0.0,0.0,0.0
1704780835241270859,12117,1704780835240892793,imu_link,-0.006111168258592395,-0.00025947897539251854,0.7014071806628451,0.7127345601328557,0.0,0.0,0.0,0.0,0.0,0.0,0.0,0.0,0.0,-0.0041887902047863905,0.0015707963267948967,-0.022165681500327987,0.0,0.0,0.0,0.0,0.0,0.0,0.0,0.0,0.0,0.24908890999999997,-0.269682875,9.36535075,0.0,0.0,0.0,0.0,0.0,0.0,0.0,0.0,0.0
1704780835341398102,12118,1704780835341024337,imu_link,-0.006599481754906857,0.0003678668342608983,0.7007227215309502,0.7134030971651423,0.0,0.0,0.0,0.0,0.0,0.0,0.0,0.0,0.0,-0.00715584993317675,-0.009948376736367677,-0.018675022996339326,0.0,0.0,0.0,0.0,0.0,0.0,0.0,0.0,0.0,-0.495235825,0.03138128,10.435256265,0.0,0.0,0.0,0.0,0.0,0.0,0.0,0.0,0.0
1704780835441775145,12119,1704780835441258113,imu_link,-0.0064232787632391465,-0.0005526341676444944,0.6999750443217292,0.7141382032997532,0.0,0.0,0.0,0.0,0.0,0.0,0.0,0.0,0.0,-0.01832595714594046,0.028448866807507567,-0.023387411976724018,0.0,0.0,0.0,0.0,0.0,0.0,0.0,0.0,0.0,-0.17259704,-0.21182364,9.587961705,0.0,0.0,0.0,0.0,0.0,0.0,0.0,0.0,0.0
1704780835540882230,12120,1704780835540420457,imu_link,-0.0069092491049359585,0.00019999804074726305,0.6992271267716683,0.7148661745139625,0.0,0.0,0.0,0.0,0.0,0.0,0.0,0.0,0.0,0.0022689280275926286,-0.029845130209103034,-0.018675022996339326,0.0,0.0,0.0,0.0,0.0,0.0,0.0,0.0,0.0,-0.102969825,-0.18044236,9.823321305,0.0,0.0,0.0,0.0,0.0,0.0,0.0,0.0,0.0
1704780835641189630,12121,1704780835640785305,imu_link,-0.006360383991691351,-0.00035648754295975783,0.6986652741776439,0.7154203331541451,0.0,0.0,0.0,0.0,0.0,0.0,0.0,0.0,0.0,-0.007679448708775049,0.01780235837034216,-0.015184364492350668,0.0,0.0,0.0,0.0,0.0,0.0,0.0,0.0,0.0,0.14121576,0.024516625,9.986111695,0.0,0.0,0.0,0.0,0.0,0.0,0.0,0.0,0.0
1704780835741198382,12122,1704780835740762533,imu_link,-0.006556211131922942,-0.0011495554174890876,0.6979147815073262,0.7161498812200675,0.0,0.0,0.0,0.0,0.0,0.0,0.0,0.0,0.0,-0.023212879051524585,-0.041887902047863905,-0.02548180707911721,0.0,0.0,0.0,0.0,0.0,0.0,0.0,0.0,0.0,-0.13140911,-0.12454445499999998,9.727216134999999,0.0,0.0,0.0,0.0,0.0,0.0,0.0,0.0,0.0
1704780835841271632,12123,1704780835840861086,imu_link,-0.0064443537054941855,-0.0018848183565406229,0.69716275272043,0.7168814504395783,0.0,0.0,0.0,0.0,0.0,0.0,0.0,0.0,0.0,0.002967059728390361,0.017278759594743863,-0.012740903539558606,0.0,0.0,0.0,0.0,0.0,0.0,0.0,0.0,0.0,-0.34813607499999993,-0.32460011499999997,9.84979926,0.0,0.0,0.0,0.0,0.0,0.0,0.0,0.0,0.0
1704780835941162670,12124,1704780835940776607,imu_link,-0.006569063093180458,-0.0018785100241729457,0.6966621219151614,0.7173668562868175,0.0,0.0,0.0,0.0,0.0,0.0,0.0,0.0,0.0,-0.002617993877991494,-0.003490658503988659,-0.017278759594743863,0.0,0.0,0.0,0.0,0.0,0.0,0.0,0.0,0.0,-0.30400615,0.057859234999999995,9.88314187,0.0,0.0,0.0,0.0,0.0,0.0,0.0,0.0,0.0
1704780836041730695,12125,1704780836041289895,imu_link,-0.007419035697142254,-0.0008728197628061832,0.6961006875393818,0.7179053063616302,0.0,0.0,0.0,0.0,0.0,0.0,0.0,0.0,0.0,-0.006632251157578452,0.02722713633111154,-0.014137166941154071,0.0,0.0,0.0,0.0,0.0,0.0,0.0,0.0,0.0,-0.534462425,-0.21476563499999998,9.801746675,0.0,0.0,0.0,0.0,0.0,0.0,0.0,0.0,0.0
1704780836141087471,12126,1704780836140484880,imu_link,-0.007178730332083316,-0.001242442886082466,0.6956613593836586,0.7183329278454207,0.0,0.0,0.0,0.0,0.0,0.0,0.0,0.0,0.0,0.0005235987755982988,-0.015358897417550098,-0.012217304763960306,0.0,0.0,0.0,0.0,0.0,0.0,0.0,0.0,0.0,-0.23339827,-0.09316317499999999,9.73408079,0.0,0.0,0.0,0.0,0.0,0.0,0.0,0.0,0.0
1704780836240570263,12127,1704780836240156522,imu_link,-0.007116661477074359,-0.0011780086349178838,0.6952852511840792,0.7186977006439971,0.0,0.0,0.0,0.0,0.0,0.0,0.0,0.0,0.0,0.004363323129985824,0.00017453292519943296,-0.006981317007977318,0.0,0.0,0.0,0.0,0.0,0.0,0.0,0.0,0.0,0.11964113,-0.16279038999999998,9.66543424,0.0,0.0,0.0,0.0,0.0,0.0,0.0,0.0,0.0
1704780836341508975,12128,1704780836341016856,imu_link,-0.007418233140337221,-0.00073841702080892,0.6950350495241937,0.7189372048310483,0.0,0.0,0.0,0.0,0.0,0.0,0.0,0.0,0.0,-0.004014257279586958,0.021467549799530253,-0.008028514559173916,0.0,0.0,0.0,0.0,0.0,0.0,0.0,0.0,0.0,0.05099458,0.02745862,9.941001105,0.0,0.0,0.0,0.0,0.0,0.0,0.0,0.0,0.0
1704780836441448121,12129,1704780836440965705,imu_link,-0.008096114016056812,-0.0006616965696650415,0.6947214897816298,0.7192329711095574,0.0,0.0,0.0,0.0,0.0,0.0,0.0,0.0,0.0,-0.005759586531581288,-0.008028514559173916,-0.005235987755982988,0.0,0.0,0.0,0.0,0.0,0.0,0.0,0.0,0.0,-0.18730701499999997,-0.222610955,9.862547905,0.0,0.0,0.0,0.0,0.0,0.0,0.0,0.0,0.0
1704780836540146587,12130,1704780836539791999,imu_link,-0.0076049155353519575,-0.0007916723195582195,0.694532923331438,0.7194202922654639,0.0,0.0,0.0,0.0,0.0,0.0,0.0,0.0,0.0,0.012217304763960306,0.0010471975511965976,-0.008203047484373348,0.0,0.0,0.0,0.0,0.0,0.0,0.0,0.0,0.0,-0.07354987499999999,-0.23339827,9.821359975,0.0,0.0,0.0,0.0,0.0,0.0,0.0,0.0,0.0
1704780836640722979,12131,1704780836640320923,imu_link,-0.007230689981330321,-0.0005476236667511626,0.694156350094968,0.7197877318026099,0.0,0.0,0.0,0.0,0.0,0.0,0.0,0.0,0.0,0.0019198621771937623,-0.005759586531581288,-0.010995574287564275,0.0,0.0,0.0,0.0,0.0,0.0,0.0,0.0,0.0,-0.15886772999999998,0.07158854499999999,9.760558744999999,0.0,0.0,0.0,0.0,0.0,0.0,0.0,0.0,0.0
1704780836740838358,12132,1704780836740346286,imu_link,-0.007731429483437219,-0.0009047951368417306,0.6937790200027788,0.7201458725479767,0.0,0.0,0.0,0.0,0.0,0.0,0.0,0.0,0.0,-0.019198621771937627,0.002617993877991494,-0.010821041362364843,0.0,0.0,0.0,0.0,0.0,0.0,0.0,0.0,0.0,-0.25301156999999996,-0.0784532,9.964537065,0.0,0.0,0.0,0.0,0.0,0.0,0.0,0.0,0.0
1704780836840960075,12133,1704780836840590881,imu_link,-0.008302377360009976,-0.001692848208329302,0.6934632063681301,0.7204422157319402,0.0,0.0,0.0,0.0,0.0,0.0,0.0,0.0,0.0,-0.01308996938995747,0.006981317007977318,-0.007679448708775049,0.0,0.0,0.0,0.0,0.0,0.0,0.0,0.0,0.0,-0.0029419949999999998,-0.31185147,9.652685595,0.0,0.0,0.0,0.0,0.0,0.0,0.0,0.0,0.0
1704780836941321848,12134,1704780836940843516,imu_link,-0.007802118566038945,-0.0013300675489481312,0.6932753356197798,0.7206293547222999,0.0,0.0,0.0,0.0,0.0,0.0,0.0,0.0,0.0,0.013439035240356337,-0.031241393610698498,-0.008726646259971648,0.0,0.0,0.0,0.0,0.0,0.0,0.0,0.0,0.0,-0.322638785,-0.25105024,10.210683979999999,0.0,0.0,0.0,0.0,0.0,0.0,0.0,0.0,0.0
1704780837041105264,12135,1704780837040652059,imu_link,-0.006888661082039485,-0.0018990437610538046,0.6928334263551317,0.7210622603536389,0.0,0.0,0.0,0.0,0.0,0.0,0.0,0.0,0.0,-0.015533430342749534,0.008552113334772213,-0.012391837689159739,0.0,0.0,0.0,0.0,0.0,0.0,0.0,0.0,0.0,-0.042168594999999996,0.26281822,9.774288055,0.0,0.0,0.0,0.0,0.0,0.0,0.0,0.0,0.0
1704780837140292917,12136,1704780837139861632,imu_link,-0.007385183762846523,-0.002010634570284715,0.6926443637880899,0.7212386579503388,0.0,0.0,0.0,0.0,0.0,0.0,0.0,0.0,0.0,0.005585053606381855,-0.006981317007977318,-0.0041887902047863905,0.0,0.0,0.0,0.0,0.0,0.0,0.0,0.0,0.0,0.06668521999999999,-0.6119349599999999,9.54775444,0.0,0.0,0.0,0.0,0.0,0.0,0.0,0.0,0.0
1704780837240800244,12137,1704780837240319549,imu_link,-0.006572598377377156,-0.001468761402239666,0.6923309119348751,0.7215487177384055,0.0,0.0,0.0,0.0,0.0,0.0,0.0,0.0,0.0,0.016929693744344998,0.004537856055185257,-0.01308996938995747,0.0,0.0,0.0,0.0,0.0,0.0,0.0,0.0,0.0,0.320677455,0.04511059,10.268543215,0.0,0.0,0.0,0.0,0.0,0.0,0.0,0.0,0.0
1704780837340856507,12138,1704780837340338448,imu_link,-0.006082599779547884,-0.001598641393313617,0.6918896305296613,0.7219758898267629,0.0,0.0,0.0,0.0,0.0,0.0,0.0,0.0,0.0,-0.006981317007977318,-0.022165681500327987,-0.006632251157578452,0.0,0.0,0.0,0.0,0.0,0.0,0.0,0.0,0.0,0.32754211,0.00196133,9.254535605,0.0,0.0,0.0,0.0,0.0,0.0,0.0,0.0,0.0
1704780837441049055,12139,1704780837440572212,imu_link,-0.006219891000664328,-0.0022107674291451987,0.6916358167808992,0.7222162573697247,0.0,0.0,0.0,0.0,0.0,0.0,0.0,0.0,0.0,0.008203047484373348,0.009599310885968814,-0.009075712110370514,0.0,0.0,0.0,0.0,0.0,0.0,0.0,0.0,0.0,0.546230405,-0.42364728,10.10477216,0.0,0.0,0.0,0.0,0.0,0.0,0.0,0.0,0.0
1704780837540215900,12140,1704780837539815184,imu_link,-0.004976161735456637,-0.0017417669201576676,0.6913218751895175,0.7225276942421153,0.0,0.0,0.0,0.0,0.0,0.0,0.0,0.0,0.0,0.035255650890285456,-0.027401669256310976,-0.008552113334772213,0.0,0.0,0.0,0.0,0.0,0.0,0.0,0.0,0.0,0.461893215,-0.17651969999999997,9.8654899,0.0,0.0,0.0,0.0,0.0,0.0,0.0,0.0,0.0
1704780837640295031,12141,1704780837639904178,imu_link,-0.004705267866212923,-0.0006338936534713104,0.6908823757401997,0.7229515900284892,0.0,0.0,0.0,0.0,0.0,0.0,0.0,0.0,0.0,0.01117010721276371,0.022863813201125717,-0.01308996938995747,0.0,0.0,0.0,0.0,0.0,0.0,0.0,0.0,0.0,0.45797055499999995,0.173577705,9.74192611,0.0,0.0,0.0,0.0,0.0,0.0,0.0,0.0,0.0
1704780837740559394,12142,1704780837740199911,imu_link,-0.003991112510259579,-0.0017590360960687854,0.6905016044792576,0.7233177109849545,0.0,0.0,0.0,0.0,0.0,0.0,0.0,0.0,0.0,-0.00715584993317675,-0.04363323129985824,-0.010821041362364843,0.0,0.0,0.0,0.0,0.0,0.0,0.0,0.0,0.0,0.29027684,-0.21966896,10.05966157,0.0,0.0,0.0,0.0,0.0,0.0,0.0,0.0,0.0
1704780837840904735,12143,1704780837840291801,imu_link,-0.003258158013644059,-0.0020204240722986578,0.689932520739772,0.723863536254307,0.0,0.0,0.0,0.0,0.0,0.0,0.0,0.0,0.0,0.007853981633974483,-0.0031415926535897933,-0.02076941809873252,0.0,0.0,0.0,0.0,0.0,0.0,0.0,0.0,0.0,0.08433718999999999,-0.12748644999999997,9.742906775,0.0,0.0,0.0,0.0,0.0,0.0,0.0,0.0,0.0
1704780837939876425,12144,1704780837939425591,imu_link,-0.0023637689008255123,-0.0032126544343938556,0.6892960297112621,0.7244688225675135,0.0,0.0,0.0,0.0,0.0,0.0,0.0,0.0,0.0,-0.01308996938995747,-0.041015237421866746,-0.009599310885968814,0.0,0.0,0.0,0.0,0.0,0.0,0.0,0.0,0.0,0.152003075,0.177500365,9.727216134999999,0.0,0.0,0.0,0.0,0.0,0.0,0.0,0.0,0.0
1704780838040061425,12145,1704780838039690947,imu_link,-0.0021395714616735378,-0.004081847234883384,0.6891017990574807,0.7246498956688359,0.0,0.0,0.0,0.0,0.0,0.0,0.0,0.0,0.0,0.007853981633974483,-0.0024434609527920616,-0.007853981633974483,0.0,0.0,0.0,0.0,0.0,0.0,0.0,0.0,0.0,0.11081514499999999,-0.522694445,9.836069949999999,0.0,0.0,0.0,0.0,0.0,0.0,0.0,0.0,0.0
1704780838140284283,12146,1704780838139922217,imu_link,-0.0008889873324560429,-0.0033721599098086377,0.6887261556560981,0.7250131866071386,0.0,0.0,0.0,0.0,0.0,0.0,0.0,0.0,0.0,0.034557519189487726,-0.012217304763960306,-0.010297442586766544,0.0,0.0,0.0,0.0,0.0,0.0,0.0,0.0,0.0,0.10198916,-0.023535959999999998,9.5124505,0.0,0.0,0.0,0.0,0.0,0.0,0.0,0.0,0.0
1704780838240004532,12147,1704780838239529031,imu_link,-7.107273420849905e-05,-0.002714158141886727,0.688349364349191,0.7253742350637441,0.0,0.0,0.0,0.0,0.0,0.0,0.0,0.0,0.0,0.01064650843716541,-0.010122909661567111,-0.01064650843716541,0.0,0.0,0.0,0.0,0.0,0.0,0.0,0.0,0.0,-0.22163028999999998,0.12062179499999999,10.448004909999998,0.0,0.0,0.0,0.0,0.0,0.0,0.0,0.0,0.0
1704780838340911325,12148,1704780838340470777,imu_link,0.0010810928537906836,-0.003424044461190195,0.6879032260986264,0.725793537227269,0.0,0.0,0.0,0.0,0.0,0.0,0.0,0.0,0.0,0.012740903539558606,-0.004537856055185257,-0.010821041362364843,0.0,0.0,0.0,0.0,0.0,0.0,0.0,0.0,0.0,0.06374322499999999,-0.24222425499999997,9.429093974999999,0.0,0.0,0.0,0.0,0.0,0.0,0.0,0.0,0.0
1704780838440734903,12149,1704780838440268824,imu_link,0.001179919789335539,-0.0020074780186384667,0.687591860737648,0.7260936653549832,0.0,0.0,0.0,0.0,0.0,0.0,0.0,0.0,0.0,0.016057029118347832,0.01361356816555577,-0.009948376736367677,0.0,0.0,0.0,0.0,0.0,0.0,0.0,0.0,0.0,-0.04511059,0.116699135,10.062603565,0.0,0.0,0.0,0.0,0.0,0.0,0.0,0.0,0.0
1704780838539534681,12150,1704780838539111639,imu_link,0.0012415834288389534,-0.0019485585453155917,0.6869581357484104,0.7266933199908013,0.0,0.0,0.0,0.0,0.0,0.0,0.0,0.0,0.0,-0.01884955592153876,-0.0008726646259971648,-0.019896753472735354,0.0,0.0,0.0,0.0,0.0,0.0,0.0,0.0,0.0,0.212804305,0.163771055,9.601691014999998,0.0,0.0,0.0,0.0,0.0,0.0,0.0,0.0,0.0
1704780838640207359,12151,1704780838639799914,imu_link,0.0001333601849065766,-0.0017940926117645888,0.6863874702807662,0.7272338029054563,0.0,0.0,0.0,0.0,0.0,0.0,0.0,0.0,0.0,-0.0031415926535897933,0.02583087292951608,-0.012217304763960306,0.0,0.0,0.0,0.0,0.0,0.0,0.0,0.0,0.0,0.08237586,-0.36873004,9.62424631,0.0,0.0,0.0,0.0,0.0,0.0,0.0,0.0,0.0
1704780838739955127,12152,1704780838739458563,imu_link,0.00039718211889813314,-0.0011846558213488986,0.685944395087065,0.7276528881861118,0.0,0.0,0.0,0.0,0.0,0.0,0.0,0.0,0.0,0.016755160819145562,-0.0038397243543875246,-0.011693705988362009,0.0,0.0,0.0,0.0,0.0,0.0,0.0,0.0,0.0,-0.083356525,0.10591182,10.3754357,0.0,0.0,0.0,0.0,0.0,0.0,0.0,0.0,0.0
1704780838840415773,12153,1704780838840041889,imu_link,-0.0004298936413416961,7.46813776965113e-05,0.6855007378231321,0.728071801444123,0.0,0.0,0.0,0.0,0.0,0.0,0.0,0.0,0.0,0.0054105206811824215,0.05864306286700947,-0.00942477796076938,0.0,0.0,0.0,0.0,0.0,0.0,0.0,0.0,0.0,-0.11571846999999999,0.138273765,9.34966011,0.0,0.0,0.0,0.0,0.0,0.0,0.0,0.0,0.0
1704780838939778352,12154,1704780838939464978,imu_link,-0.0006280857615551529,-0.0003512232271514188,0.6851829014984437,0.7283706979585977,0.0,0.0,0.0,0.0,0.0,0.0,0.0,0.0,0.0,0.003316125578789226,-0.05899212871740834,-0.007504915783575617,0.0,0.0,0.0,0.0,0.0,0.0,0.0,0.0,0.0,-0.15886772999999998,-0.16475172,10.15576674,0.0,0.0,0.0,0.0,0.0,0.0,0.0,0.0,0.0
1704780839039639112,12155,1704780839039230683,imu_link,0.00030268540539557087,-0.00019453517836741683,0.6849922581054044,0.7285502569303429,0.0,0.0,0.0,0.0,0.0,0.0,0.0,0.0,0.0,0.026529004630313806,0.025132741228718346,-0.002967059728390361,0.0,0.0,0.0,0.0,0.0,0.0,0.0,0.0,0.0,-0.00196133,-0.13140911,9.723293475,0.0,0.0,0.0,0.0,0.0,0.0,0.0,0.0,0.0
1704780839139884247,12156,1704780839139531575,imu_link,0.0017636368215755301,-0.0008575388112001432,0.6847375412662781,0.7287871114344443,0.0,0.0,0.0,0.0,0.0,0.0,0.0,0.0,0.0,-0.0019198621771937623,-0.0635299847725936,-0.01308996938995747,0.0,0.0,0.0,0.0,0.0,0.0,0.0,0.0,0.0,-0.00980665,0.29518016499999994,9.497740525,0.0,0.0,0.0,0.0,0.0,0.0,0.0,0.0,0.0
1704780839239940195,12157,1704780839239541846,imu_link,0.002213400175345982,-0.0022311538073947054,0.6842894272263685,0.729203745601022,0.0,0.0,0.0,0.0,0.0,0.0,0.0,0.0,0.0,-0.01064650843716541,-0.009773843811168246,-0.005934119456780722,0.0,0.0,0.0,0.0,0.0,0.0,0.0,0.0,0.0,-0.10198916,-0.14121576,10.55391673,0.0,0.0,0.0,0.0,0.0,0.0,0.0,0.0,0.0
1704780839340215626,12158,1704780839339773203,imu_link,0.0035943889050639517,-0.0034483690246170672,0.6842214286605823,0.7292573110234417,0.0,0.0,0.0,0.0,0.0,0.0,0.0,0.0,0.0,0.0158824961931484,-0.05026548245743669,-0.0041887902047863905,0.0,0.0,0.0,0.0,0.0,0.0,0.0,0.0,0.0,0.148080415,-0.17063570999999997,9.246690285,0.0,0.0,0.0,0.0,0.0,0.0,0.0,0.0,0.0
1704780839440513130,12159,1704780839439997114,imu_link,0.0048541599604482065,-0.004540221495919443,0.6838977040780232,0.729547636468418,0.0,0.0,0.0,0.0,0.0,0.0,0.0,0.0,0.0,-0.009948376736367677,-0.0054105206811824215,-0.010995574287564275,0.0,0.0,0.0,0.0,0.0,0.0,0.0,0.0,0.0,0.41089863499999996,0.301064155,9.911581154999999,0.0,0.0,0.0,0.0,0.0,0.0,0.0,0.0,0.0
1704780839539212748,12160,1704780839538857879,imu_link,0.0035298846033214796,-0.005302296683451478,0.6834462363383175,0.7299730595025792,0.0,0.0,0.0,0.0,0.0,0.0,0.0,0.0,0.0,-0.038571776469074684,-0.006981317007977318,-0.009075712110370514,0.0,0.0,0.0,0.0,0.0,0.0,0.0,0.0,0.0,0.05491724,-0.0058839899999999995,9.740945445,0.0,0.0,0.0,0.0,0.0,0.0,0.0,0.0,0.0
1704780839639727926,12161,1704780839639360605,imu_link,0.0025814293776097157,-0.0059506870115825445,0.6833133851069325,0.7300963931428256,0.0,0.0,0.0,0.0,0.0,0.0,0.0,0.0,0.0,-0.0015707963267948967,0.046076692252650306,0.0008726646259971648,0.0,0.0,0.0,0.0,0.0,0.0,0.0,0.0,0.0,0.33734875999999997,-0.32165812,9.62032365,0.0,0.0,0.0,0.0,0.0,0.0,0.0,0.0,0.0
1704780839739825052,12162,1704780839739425569,imu_link,0.0007324821013439035,-0.00397568015620428,0.6832627684479484,0.7301613840036406,0.0,0.0,0.0,0.0,0.0,0.0,0.0,0.0,0.0,-0.0024434609527920616,0.03490658503988659,-0.005585053606381855,0.0,0.0,0.0,0.0,0.0,0.0,0.0,0.0,0.0,0.14513842,0.12944777999999998,9.709564165,0.0,0.0,0.0,0.0,0.0,0.0,0.0,0.0,0.0
1704780839840078494,12163,1704780839839734851,imu_link,-0.0009110269057958943,-0.0032418107559301196,0.6830750506999184,0.730340424599586,0.0,0.0,0.0,0.0,0.0,0.0,0.0,0.0,0.0,-0.030368728984701335,0.02722713633111154,-0.00645771823237902,0.0,0.0,0.0,0.0,0.0,0.0,0.0,0.0,0.0,-0.011767979999999999,-0.083356525,10.46565688,0.0,0.0,0.0,0.0,0.0,0.0,0.0,0.0,0.0
1704780839939117594,12164,1704780839938777289,imu_link,-0.0015504207094190552,-0.0020472288745996825,0.6830157998432002,0.7303990842095247,0.0,0.0,0.0,0.0,0.0,0.0,0.0,0.0,0.0,0.002617993877991494,0.03490658503988659,0.0019198621771937623,0.0,0.0,0.0,0.0,0.0,0.0,0.0,0.0,0.0,0.023535959999999998,-0.27066354,9.542851115,0.0,0.0,0.0,0.0,0.0,0.0,0.0,0.0,0.0
1704780840039457479,12165,1704780840039029267,imu_link,-0.001517527114200957,-0.0010602136879804683,0.6828905491330853,0.7305183577180705,0.0,0.0,0.0,0.0,0.0,0.0,0.0,0.0,0.0,0.0015707963267948967,-0.010122909661567111,-0.01064650843716541,0.0,0.0,0.0,0.0,0.0,0.0,0.0,0.0,0.0,-0.21378497,0.22947561,10.05966157,0.0,0.0,0.0,0.0,0.0,0.0,0.0,0.0,0.0
1704780840139653725,12166,1704780840139293161,imu_link,-0.0010506776571795843,-0.0018159817859275506,0.6822512123044763,0.7311148210751073,0.0,0.0,0.0,0.0,0.0,0.0,0.0,0.0,0.0,-0.031241393610698498,-0.04939281783143952,-0.02076941809873252,0.0,0.0,0.0,0.0,0.0,0.0,0.0,0.0,0.0,-0.32558077999999996,0.069627215,10.02043497,0.0,0.0,0.0,0.0,0.0,0.0,0.0,0.0,0.0
1704780840239927961,12167,1704780840239342042,imu_link,-0.000590065207409353,-0.004486586066643122,0.6817925350120184,0.7315315861741059,0.0,0.0,0.0,0.0,0.0,0.0,0.0,0.0,0.0,-0.0010471975511965976,0.03612831551628262,-0.006632251157578452,0.0,0.0,0.0,0.0,0.0,0.0,0.0,0.0,0.0,0.565843705,-0.45797055499999995,9.4536106,0.0,0.0,0.0,0.0,0.0,0.0,0.0,0.0,0.0
1704780840339961860,12168,1704780840339533654,imu_link,-0.0005700573243534797,-0.003869663067833843,0.6814769388315144,0.7318291348280805,0.0,0.0,0.0,0.0,0.0,0.0,0.0,0.0,0.0,0.05061454830783556,-0.060388392119003806,-0.011519173063162576,0.0,0.0,0.0,0.0,0.0,0.0,0.0,0.0,0.0,0.006864655,-0.19319100499999997,9.60463301,0.0,0.0,0.0,0.0,0.0,0.0,0.0,0.0,0.0
1704780840440047669,12169,1704780840439695304,imu_link,-0.000578283333206043,-0.003992443028658873,0.6807734293592467,0.7324829444195271,0.0,0.0,0.0,0.0,0.0,0.0,0.0,0.0,0.0,-0.0036651914291880917,0.0497418836818384,-0.017627825445142728,0.0,0.0,0.0,0.0,0.0,0.0,0.0,0.0,0.0,-0.0392266,0.44424124499999995,10.582356014999998,0.0,0.0,0.0,0.0,0.0,0.0,0.0,0.0,0.0
1704780840539317570,12170,1704780840538903671,imu_link,-0.0013523767380907508,-0.004827965698931773,0.6803844170962232,0.7328382541850561,0.0,0.0,0.0,0.0,0.0,0.0,0.0,0.0,0.0,-0.011519173063162576,-0.021467549799530253,-0.00645771823237902,0.0,0.0,0.0,0.0,0.0,0.0,0.0,0.0,0.0,0.138273765,-0.4550285599999999,8.93189682,0.0,0.0,0.0,0.0,0.0,0.0,0.0,0.0,0.0
1704780840639526943,12171,1704780840639098818,imu_link,-0.002458686980081853,-0.0029953993689587127,0.6801387404178494,0.7330731724894698,0.0,0.0,0.0,0.0,0.0,0.0,0.0,0.0,0.0,0.026878070480712675,0.06859143960337716,-0.00645771823237902,0.0,0.0,0.0,0.0,0.0,0.0,0.0,0.0,0.0,0.006864655,-0.14709974999999997,10.497038159999999,0.0,0.0,0.0,0.0,0.0,0.0,0.0,0.0,0.0
1704780840739591627,12172,1704780840739253200,imu_link,-0.004403707908322167,-0.0005123965916203983,0.6798255798186478,0.7333604337777095,0.0,0.0,0.0,0.0,0.0,0.0,0.0,0.0,0.0,-0.00890117918517108,0.046774823953448036,-0.010821041362364843,0.0,0.0,0.0,0.0,0.0,0.0,0.0,0.0,0.0,-0.122583125,0.11081514499999999,8.860308275,0.0,0.0,0.0,0.0,0.0,0.0,0.0,0.0,0.0
1704780840839822824,12173,1704780840839406959,imu_link,-0.0034287526548947606,-0.002462450032488641,0.6795649072523453,0.7336032421044637,0.0,0.0,0.0,0.0,0.0,0.0,0.0,0.0,0.0,-0.009250245035569947,-0.028448866807507567,-0.0031415926535897933,0.0,0.0,0.0,0.0,0.0,0.0,0.0,0.0,0.0,0.155925735,-0.49131316499999994,10.7480884,0.0,0.0,0.0,0.0,0.0,0.0,0.0,0.0,0.0
1704780840939005050,12174,1704780840938610676,imu_link,-0.003393723086483,6.862140619173719e-05,0.679441613079217,0.7337217267813638,0.0,0.0,0.0,0.0,0.0,0.0,0.0,0.0,0.0,0.01832595714594046,0.0031415926535897933,-0.010122909661567111,0.0,0.0,0.0,0.0,0.0,0.0,0.0,0.0,0.0,-0.40207265,0.006864655,9.466359245,0.0,0.0,0.0,0.0,0.0,0.0,0.0,0.0,0.0
1704780841039423701,12175,1704780841039014656,imu_link,-0.003012602018956598,-0.0012410046421506278,0.6789919084958804,0.734138523940595,0.0,0.0,0.0,0.0,0.0,0.0,0.0,0.0,0.0,-0.02617993877991494,0.026703537555513242,-0.009948376736367677,0.0,0.0,0.0,0.0,0.0,0.0,0.0,0.0,0.0,0.35009740500000003,0.20593965,9.372215404999999,0.0,0.0,0.0,0.0,0.0,0.0,0.0,0.0,0.0
1704780841139214233,12176,1704780841138820108,imu_link,-0.004537555718701312,-0.0007472467880937719,0.6786725309313218,0.7344266116975959,0.0,0.0,0.0,0.0,0.0,0.0,0.0,0.0,0.0,-0.0022689280275926286,-0.028623399732707,-0.01064650843716541,0.0,0.0,0.0,0.0,0.0,0.0,0.0,0.0,0.0,-0.134351105,-0.632528925,10.172438045,0.0,0.0,0.0,0.0,0.0,0.0,0.0,0.0,0.0
1704780841239267431,12177,1704780841238965543,imu_link,-0.0032505566647339206,-0.0009816204481986367,0.6782873455996573,0.7347889132955369,0.0,0.0,0.0,0.0,0.0,0.0,0.0,0.0,0.0,0.015707963267948967,0.01884955592153876,-0.009250245035569947,0.0,0.0,0.0,0.0,0.0,0.0,0.0,0.0,0.0,0.12748644999999997,0.14709974999999997,9.564425745,0.0,0.0,0.0,0.0,0.0,0.0,0.0,0.0,0.0
1704780841339551098,12178,1704780841339213364,imu_link,-0.003626093637517135,-0.001087926656406875,0.6778382293957612,0.7352013347581338,0.0,0.0,0.0,0.0,0.0,0.0,0.0,0.0,0.0,-0.029845130209103034,-0.022689280275926284,-0.014660765716752367,0.0,0.0,0.0,0.0,0.0,0.0,0.0,0.0,0.0,-0.20888164499999998,0.161809725,10.182244695,0.0,0.0,0.0,0.0,0.0,0.0,0.0,0.0,0.0
1704780841439683312,12179,1704780841439350562,imu_link,-0.00434795755341639,-0.0021062615456494517,0.677450735049819,0.7355522826474507,0.0,0.0,0.0,0.0,0.0,0.0,0.0,0.0,0.0,-0.012217304763960306,0.020420352248333655,-0.006108652381980153,0.0,0.0,0.0,0.0,0.0,0.0,0.0,0.0,0.0,-0.00784532,-0.40403397999999996,9.613458994999998,0.0,0.0,0.0,0.0,0.0,0.0,0.0,0.0,0.0
1704780841538842226,12180,1704780841538502455,imu_link,-0.004929311049825582,-0.0012164543237168108,0.6772605671246948,0.7357257276658125,0.0,0.0,0.0,0.0,0.0,0.0,0.0,0.0,0.0,0.004537856055185257,0.00034906585039886593,-0.008203047484373348,0.0,0.0,0.0,0.0,0.0,0.0,0.0,0.0,0.0,-0.051975244999999996,0.0058839899999999995,9.7870367,0.0,0.0,0.0,0.0,0.0,0.0,0.0,0.0,0.0
1704780841638964984,12181,1704780841638703329,imu_link,-0.004960955393636562,-0.00195370178431682,0.6768733782118153,0.7360801599276026,0.0,0.0,0.0,0.0,0.0,0.0,0.0,0.0,0.0,-0.012391837689159739,0.004886921905584123,-0.00471238898038469,0.0,0.0,0.0,0.0,0.0,0.0,0.0,0.0,0.0,0.09610516999999999,-0.010787315,9.80272734,0.0,0.0,0.0,0.0,0.0,0.0,0.0,0.0,0.0
1704780841738954431,12182,1704780841738739358,imu_link,-0.005454331695848205,-0.0019325542129253455,0.6768092916953912,0.7361356520198901,0.0,0.0,0.0,0.0,0.0,0.0,0.0,0.0,0.0,0.016929693744344998,-0.005585053606381855,-0.003490658503988659,0.0,0.0,0.0,0.0,0.0,0.0,0.0,0.0,0.0,-0.19417167,-0.44914456999999997,9.836069949999999,0.0,0.0,0.0,0.0,0.0,0.0,0.0,0.0,0.0
1704780841839059951,12183,1704780841838655530,imu_link,-0.005058882256355011,-0.0013302444996024772,0.6766180459891705,0.7363155967393902,0.0,0.0,0.0,0.0,0.0,0.0,0.0,0.0,0.0,0.01308996938995747,0.021118483949131385,-0.0036651914291880917,0.0,0.0,0.0,0.0,0.0,0.0,0.0,0.0,0.0,-0.09218251,0.18828767999999999,10.12634679,0.0,0.0,0.0,0.0,0.0,0.0,0.0,0.0,0.0
1704780841938728028,12184,1704780841938497468,imu_link,-0.00574536633941199,-0.0014845336509191564,0.6763607743472795,0.7365465972019786,0.0,0.0,0.0,0.0,0.0,0.0,0.0,0.0,0.0,-0.015358897417550098,-0.008203047484373348,-0.010821041362364843,0.0,0.0,0.0,0.0,0.0,0.0,0.0,0.0,0.0,-0.02745862,-0.142196425,9.589923035,0.0,0.0,0.0,0.0,0.0,0.0,0.0,0.0,0.0
1704780842038412010,12185,1704780842038220602,imu_link,-0.005874756326941198,-0.0015995051699268861,0.6759747564452346,0.7368996250983686,0.0,0.0,0.0,0.0,0.0,0.0,0.0,0.0,0.0,0.02391101075232232,-0.0015707963267948967,-0.00715584993317675,0.0,0.0,0.0,0.0,0.0,0.0,0.0,0.0,0.0,0.05491724,-0.5491724,9.85764458,0.0,0.0,0.0,0.0,0.0,0.0,0.0,0.0,0.0
1704780842138715666,12186,1704780842138334217,imu_link,-0.004685260000067942,-0.0012168510458240283,0.6757181101739727,0.737144221435113,0.0,0.0,0.0,0.0,0.0,0.0,0.0,0.0,0.0,0.0143116998663535,-0.01117010721276371,-0.01117010721276371,0.0,0.0,0.0,0.0,0.0,0.0,0.0,0.0,0.0,0.206920315,0.25203090499999997,9.75565542,0.0,0.0,0.0,0.0,0.0,0.0,0.0,0.0,0.0
1704780842239256997,12187,1704780842238865400,imu_link,-0.004284719970198322,-0.0019103826972351745,0.6751371463445618,0.7376773178283638,0.0,0.0,0.0,0.0,0.0,0.0,0.0,0.0,0.0,-0.0158824961931484,-0.020245819323134222,-0.016929693744344998,0.0,0.0,0.0,0.0,0.0,0.0,0.0,0.0,0.0,0.20201698999999998,-0.05099458,9.956691745,0.0,0.0,0.0,0.0,0.0,0.0,0.0,0.0,0.0
1704780842339511442,12188,1704780842338982485,imu_link,-0.004297517824082645,-0.0021532173818405755,0.6744923701619611,0.7382661698796434,0.0,0.0,0.0,0.0,0.0,0.0,0.0,0.0,0.0,0.010122909661567111,0.02129301687433082,-0.01902408884673819,0.0,0.0,0.0,0.0,0.0,0.0,0.0,0.0,0.0,0.12650578499999998,-0.395207995,9.697796185,0.0,0.0,0.0,0.0,0.0,0.0,0.0,0.0,0.0
1704780842439207112,12189,1704780842438985482,imu_link,-0.004377286353969166,-0.0011575328193141727,0.6738504711857422,0.738853870508033,0.0,0.0,0.0,0.0,0.0,0.0,0.0,0.0,0.0,-0.003316125578789226,-0.007330382858376183,-0.017453292519943295,0.0,0.0,0.0,0.0,0.0,0.0,0.0,0.0,0.0,-0.308909475,0.275566865,10.058680905,0.0,0.0,0.0,0.0,0.0,0.0,0.0,0.0,0.0
1704780842538447440,12190,1704780842538185090,imu_link,-0.004589075633509837,-0.0017001903651196041,0.6732687392615748,0.7393816703642863,0.0,0.0,0.0,0.0,0.0,0.0,0.0,0.0,0.0,-0.014486232791552934,0.01064650843716541,-0.01361356816555577,0.0,0.0,0.0,0.0,0.0,0.0,0.0,0.0,0.0,-0.26477955,-0.303025485,9.969440389999999,0.0,0.0,0.0,0.0,0.0,0.0,0.0,0.0,0.0
1704780842638728698,12191,1704780842638336699,imu_link,-0.004525554005568874,-0.0016386721588724298,0.6728170963692628,0.73979320688131,0.0,0.0,0.0,0.0,0.0,0.0,0.0,0.0,0.0,0.020943951023931952,-0.012740903539558606,-0.010297442586766544,0.0,0.0,0.0,0.0,0.0,0.0,0.0,0.0,0.0,-0.32361945,-0.28439285,9.840973275,0.0,0.0,0.0,0.0,0.0,0.0,0.0,0.0,0.0
1704780842738827775,12192,1704780842738572362,imu_link,-0.003956685715573268,-0.0013554107562692287,0.6725594013627134,0.7400313230792724,0.0,0.0,0.0,0.0,0.0,0.0,0.0,0.0,0.0,0.009250245035569947,0.010297442586766544,-0.0031415926535897933,0.0,0.0,0.0,0.0,0.0,0.0,0.0,0.0,0.0,-0.152003075,0.17848102999999998,9.804688669999999,0.0,0.0,0.0,0.0,0.0,0.0,0.0,0.0,0.0
1704780842838538620,12193,1704780842838351351,imu_link,-0.004567569442711906,-0.001201099849518218,0.6723014767046112,0.7402623988082444,0.0,0.0,0.0,0.0,0.0,0.0,0.0,0.0,0.0,-0.005235987755982988,0.007504915783575617,-0.010995574287564275,0.0,0.0,0.0,0.0,0.0,0.0,0.0,0.0,0.0,-0.07943386499999999,-0.19417167,9.72427414,0.0,0.0,0.0,0.0,0.0,0.0,0.0,0.0,0.0
1704780842938422178,12194,1704780842938185519,imu_link,-0.004931903863663856,-0.0010578823376101115,0.6719787682390116,0.7405532339036947,0.0,0.0,0.0,0.0,0.0,0.0,0.0,0.0,0.0,0.006806784082777885,0.011868238913561443,-0.003316125578789226,0.0,0.0,0.0,0.0,0.0,0.0,0.0,0.0,0.0,0.04314926,-0.20986230999999997,10.021415635,0.0,0.0,0.0,0.0,0.0,0.0,0.0,0.0,0.0
1704780843038510671,12195,1704780843038117629,imu_link,-0.004878028351195654,5.1956230262219585e-05,0.6719153003689419,0.7406119302779761,0.0,0.0,0.0,0.0,0.0,0.0,0.0,0.0,0.0,0.02129301687433082,0.007330382858376183,-0.0008726646259971648,0.0,0.0,0.0,0.0,0.0,0.0,0.0,0.0,0.0,0.0029419949999999998,-0.11866046499999999,9.67524089,0.0,0.0,0.0,0.0,0.0,0.0,0.0,0.0,0.0
1704780843138021773,12196,1704780843137824875,imu_link,-0.0046134019105539,0.0004109744183667806,0.6717213052324505,0.7407894678784602,0.0,0.0,0.0,0.0,0.0,0.0,0.0,0.0,0.0,0.007330382858376183,0.010821041362364843,-0.010471975511965976,0.0,0.0,0.0,0.0,0.0,0.0,0.0,0.0,0.0,-0.008825985,0.055897905,9.79880468,0.0,0.0,0.0,0.0,0.0,0.0,0.0,0.0,0.0
1704780843238624258,12197,1704780843238413432,imu_link,-0.00539900828893939,0.0007620944541288244,0.6712041085776174,0.7412525308894835,0.0,0.0,0.0,0.0,0.0,0.0,0.0,0.0,0.0,-0.005235987755982988,0.009250245035569947,-0.012566370614359173,0.0,0.0,0.0,0.0,0.0,0.0,0.0,0.0,0.0,-0.24516625,-0.097085835,9.903735834999999,0.0,0.0,0.0,0.0,0.0,0.0,0.0,0.0,0.0
1704780843339069637,12198,1704780843338688669,imu_link,-0.005346250223827556,0.0005769439573306743,0.6708159775057028,0.7416043480639004,0.0,0.0,0.0,0.0,0.0,0.0,0.0,0.0,0.0,0.0015707963267948967,-0.012566370614359173,-0.012566370614359173,0.0,0.0,0.0,0.0,0.0,0.0,0.0,0.0,0.0,-0.12552512,-0.14709974999999997,9.648762934999999,0.0,0.0,0.0,0.0,0.0,0.0,0.0,0.0,0.0
1704780843438705243,12199,1704780843438400941,imu_link,-0.005176656018873412,0.00026269099530759014,0.6703628289746745,0.7420153709694799,0.0,0.0,0.0,0.0,0.0,0.0,0.0,0.0,0.0,-0.0010471975511965976,0.0022689280275926286,-0.00942477796076938,0.0,0.0,0.0,0.0,0.0,0.0,0.0,0.0,0.0,0.061781894999999996,-0.07649186999999999,9.73604212,0.0,0.0,0.0,0.0,0.0,0.0,0.0,0.0,0.0
1704780843538385031,12200,1704780843538173731,imu_link,-0.0058196252745613105,0.0009780390125906004,0.6699741661647102,0.7423609580744769,0.0,0.0,0.0,0.0,0.0,0.0,0.0,0.0,0.0,0.007853981633974483,0.03106686068549907,-0.013264502315156903,0.0,0.0,0.0,0.0,0.0,0.0,0.0,0.0,0.0,-0.05295591,-0.22555294999999997,10.162631395,0.0,0.0,0.0,0.0,0.0,0.0,0.0,0.0,0.0
1704780843638775402,12201,1704780843638251608,imu_link,-0.005787193889550528,0.0015973262589780764,0.6695845131713087,0.7427116106920967,0.0,0.0,0.0,0.0,0.0,0.0,0.0,0.0,0.0,0.021467549799530253,-0.006283185307179587,-0.002617993877991494,0.0,0.0,0.0,0.0,0.0,0.0,0.0,0.0,0.0,-0.18044236,0.034323275,9.418306659999999,0.0,0.0,0.0,0.0,0.0,0.0,0.0,0.0,0.0
1704780843738535667,12202,1704780843738260075,imu_link,-0.005820653641701631,0.0021536098335103136,0.6697777260394597,0.7425357093482297,0.0,0.0,0.0,0.0,0.0,0.0,0.0,0.0,0.0,0.00471238898038469,0.022514747350726852,0.009250245035569947,0.0,0.0,0.0,0.0,0.0,0.0,0.0,0.0,0.0,-0.18632634999999997,0.144157755,10.489192840000001,0.0,0.0,0.0,0.0,0.0,0.0,0.0,0.0,0.0
1704780843838046244,12203,1704780843837922212,imu_link,-0.005907813581540564,0.0028953327930643655,0.6702936794113176,0.742066774709622,0.0,0.0,0.0,0.0,0.0,0.0,0.0,0.0,0.0,0.005934119456780722,-0.0036651914291880917,0.017976891295541593,0.0,0.0,0.0,0.0,0.0,0.0,0.0,0.0,0.0,-0.10885381499999999,-0.15886772999999998,9.244728955,0.0,0.0,0.0,0.0,0.0,0.0,0.0,0.0,0.0
1704780843938227712,12204,1704780843937866660,imu_link,-0.0058921491889492895,0.003259438282344537,0.6710042498298304,0.7414229261024543,0.0,0.0,0.0,0.0,0.0,0.0,0.0,0.0,0.0,0.012391837689159739,0.012566370614359173,0.02181661564992912,0.0,0.0,0.0,0.0,0.0,0.0,0.0,0.0,0.0,-0.04903325,0.12650578499999998,10.20283866,0.0,0.0,0.0,0.0,0.0,0.0,0.0,0.0,0.0
1704780844037705905,12205,1704780844037569030,imu_link,-0.00492874743059102,0.0028331769152874393,0.6721045115338126,0.7404344711946005,0.0,0.0,0.0,0.0,0.0,0.0,0.0,0.0,0.0,0.00715584993317675,-0.048869219055841226,0.032637657012293965,0.0,0.0,0.0,0.0,0.0,0.0,0.0,0.0,0.0,-0.15298373999999998,-0.00980665,9.356524765,0.0,0.0,0.0,0.0,0.0,0.0,0.0,0.0,0.0
1704780844138556884,12206,1704780844138149403,imu_link,-0.0038229179751784904,0.0014755265465755591,0.6733990039173023,0.7392678740772864,0.0,0.0,0.0,0.0,0.0,0.0,0.0,0.0,0.0,0.0010471975511965976,0.019198621771937627,0.03577924966588375,0.0,0.0,0.0,0.0,0.0,0.0,0.0,0.0,0.0,-0.00980665,0.04314926,10.24794925,0.0,0.0,0.0,0.0,0.0,0.0,0.0,0.0,0.0
1704780844238917807,12207,1704780844238389144,imu_link,-0.004001972793303616,0.0016624357225443886,0.6746235116493379,0.7381492654274919,0.0,0.0,0.0,0.0,0.0,0.0,0.0,0.0,0.0,-0.005061454830783556,-0.04921828490624009,0.0317649923862968,0.0,0.0,0.0,0.0,0.0,0.0,0.0,0.0,0.0,-0.318716125,0.033342609999999995,9.519315155,0.0,0.0,0.0,0.0,0.0,0.0,0.0,0.0,0.0
1704780844338552675,12208,1704780844338299905,imu_link,-0.0032270931660387334,-0.0003543470264451786,0.6758476668123208,0.7370341861625039,0.0,0.0,0.0,0.0,0.0,0.0,0.0,0.0,0.0,-0.016231562043547268,0.0019198621771937623,0.03787364476827695,0.0,0.0,0.0,0.0,0.0,0.0,0.0,0.0,0.0,0.140235095,0.051975244999999996,9.845876599999999,0.0,0.0,0.0,0.0,0.0,0.0,0.0,0.0,0.0
1704780844438730306,12209,1704780844438400011,imu_link,-0.0038276250142343553,3.523251671588498e-05,0.6771975063803267,0.7357913327823912,0.0,0.0,0.0,0.0,0.0,0.0,0.0,0.0,0.0,-0.0024434609527920616,-0.013264502315156903,0.033335788713091695,0.0,0.0,0.0,0.0,0.0,0.0,0.0,0.0,0.0,-0.240262925,-0.167693715,10.024357629999999,0.0,0.0,0.0,0.0,0.0,0.0,0.0,0.0,0.0
1704780844538006339,12210,1704780844537645588,imu_link,-0.0027569520125728625,-0.0010023078083000359,0.678543713040587,0.7345541668847516,0.0,0.0,0.0,0.0,0.0,0.0,0.0,0.0,0.0,-0.005585053606381855,-0.002967059728390361,0.03822271061867582,0.0,0.0,0.0,0.0,0.0,0.0,0.0,0.0,0.0,0.01765197,0.21966896,9.70662217,0.0,0.0,0.0,0.0,0.0,0.0,0.0,0.0,0.0
1704780844638338310,12211,1704780844637965206,imu_link,-0.003189443728467137,-0.0010515901198496307,0.6796326676673577,0.7335449261267327,0.0,0.0,0.0,0.0,0.0,0.0,0.0,0.0,0.0,-0.006981317007977318,-0.023212879051524585,0.015707963267948967,0.0,0.0,0.0,0.0,0.0,0.0,0.0,0.0,0.0,-0.11571846999999999,-0.29910282499999996,10.017492975,0.0,0.0,0.0,0.0,0.0,0.0,0.0,0.0,0.0
1704780844738389254,12212,1704780844737976765,imu_link,-0.0021023180235005684,-0.0017114719600767963,0.6799512272424336,0.7332523301662028,0.0,0.0,0.0,0.0,0.0,0.0,0.0,0.0,0.0,0.009773843811168246,0.010821041362364843,0.011344640137963142,0.0,0.0,0.0,0.0,0.0,0.0,0.0,0.0,0.0,0.267721545,-0.04118793,9.60071035,0.0,0.0,0.0,0.0,0.0,0.0,0.0,0.0,0.0
1704780844838302982,12213,1704780844837863626,imu_link,-0.002425372496544201,-0.0004663787891395179,0.6805929389875331,0.7326575949646537,0.0,0.0,0.0,0.0,0.0,0.0,0.0,0.0,0.0,0.004886921905584123,-0.0041887902047863905,0.021118483949131385,0.0,0.0,0.0,0.0,0.0,0.0,0.0,0.0,0.0,-0.144157755,0.10787314999999999,9.784094705,0.0,0.0,0.0,0.0,0.0,0.0,0.0,0.0,0.0
1704780844938126926,12214,1704780844937725294,imu_link,-0.0020400345064133484,-0.0017788452951357752,0.6811659058135979,0.7321240897045863,0.0,0.0,0.0,0.0,0.0,0.0,0.0,0.0,0.0,-0.01832595714594046,-0.01902408884673819,0.011519173063162576,0.0,0.0,0.0,0.0,0.0,0.0,0.0,0.0,0.0,0.004903325,0.08041453,9.87137389,0.0,0.0,0.0,0.0,0.0,0.0,0.0,0.0,0.0
1704780845038471222,12215,1704780845037685239,imu_link,-0.002184349742211835,-0.0023922057153973413,0.6815472794907156,0.7317669108307804,0.0,0.0,0.0,0.0,0.0,0.0,0.0,0.0,0.0,-0.0020943951023931952,0.003316125578789226,0.009075712110370514,0.0,0.0,0.0,0.0,0.0,0.0,0.0,0.0,0.0,0.12356378999999999,-0.32361945,9.823321305,0.0,0.0,0.0,0.0,0.0,0.0,0.0,0.0,0.0
1704780845137881763,12216,1704780845137448890,imu_link,-0.0025318272918359065,-0.0017632674815352114,0.6818045993431359,0.7315278320425675,0.0,0.0,0.0,0.0,0.0,0.0,0.0,0.0,0.0,-0.00034906585039886593,0.019896753472735354,0.006632251157578452,0.0,0.0,0.0,0.0,0.0,0.0,0.0,0.0,0.0,0.16671305,0.06374322499999999,9.480088555,0.0,0.0,0.0,0.0,0.0,0.0,0.0,0.0,0.0
1704780845238478799,12217,1704780845238002902,imu_link,-0.003994180680412742,-0.0012188943924677266,0.6819974427844269,0.731342634373694,0.0,0.0,0.0,0.0,0.0,0.0,0.0,0.0,0.0,-0.026529004630313806,0.030368728984701335,0.0022689280275926286,0.0,0.0,0.0,0.0,0.0,0.0,0.0,0.0,0.0,0.0058839899999999995,0.033342609999999995,9.966498394999999,0.0,0.0,0.0,0.0,0.0,0.0,0.0,0.0,0.0
1704780845338473802,12218,1704780845338107631,imu_link,-0.005397464578004031,-0.0007376807553727952,0.6819984660476454,0.7313333135526449,0.0,0.0,0.0,0.0,0.0,0.0,0.0,0.0,0.0,0.0006981317007977319,0.03647738136668148,-0.0015707963267948967,0.0,0.0,0.0,0.0,0.0,0.0,0.0,0.0,0.0,-0.28831551,-0.37461402999999993,9.566387075,0.0,0.0,0.0,0.0,0.0,0.0,0.0,0.0,0.0
1704780845438725161,12219,1704780845438299254,imu_link,-0.007059526578267852,0.0011726887982019146,0.6819989975097169,0.7313180944576815,0.0,0.0,0.0,0.0,0.0,0.0,0.0,0.0,0.0,-0.0017453292519943296,0.06754424205218056,0.003316125578789226,0.0,0.0,0.0,0.0,0.0,0.0,0.0,0.0,0.0,-1.3121297699999999,0.10983448,10.10281083,0.0,0.0,0.0,0.0,0.0,0.0,0.0,0.0,0.0
1704780845537936686,12220,1704780845537569995,imu_link,-0.008816078365105026,0.002157864020785583,0.6821893162656955,0.7311192496153216,0.0,0.0,0.0,0.0,0.0,0.0,0.0,0.0,0.0,-0.02809980095710871,-0.014835298641951801,0.005235987755982988,0.0,0.0,0.0,0.0,0.0,0.0,0.0,0.0,0.0,-1.662227175,0.06276256,9.73996478,0.0,0.0,0.0,0.0,0.0,0.0,0.0,0.0,0.0
1704780845639374648,12221,1704780845638992470,imu_link,-0.009058825781541335,0.0004984059524925782,0.6822555962189683,0.7310574469184118,0.0,0.0,0.0,0.0,0.0,0.0,0.0,0.0,0.0,-0.02129301687433082,-0.0022689280275926286,-0.0022689280275926286,0.0,0.0,0.0,0.0,0.0,0.0,0.0,0.0,0.0,-0.5795730149999999,-0.34519408,9.902755169999999,0.0,0.0,0.0,0.0,0.0,0.0,0.0,0.0,0.0
1704780845737584721,12222,1704780845737182524,imu_link,-0.008807848254558062,0.0006139867773987144,0.682191643990593,0.7311201034705406,0.0,0.0,0.0,0.0,0.0,0.0,0.0,0.0,0.0,0.014486232791552934,-0.016929693744344998,-0.00034906585039886593,0.0,0.0,0.0,0.0,0.0,0.0,0.0,0.0,0.0,-0.56682437,-0.32558077999999996,9.90863916,0.0,0.0,0.0,0.0,0.0,0.0,0.0,0.0,0.0
1704780845838065931,12223,1704780845837489439,imu_link,-0.006970713829897918,0.00017924303191352254,0.6822547954109879,0.7310812343093949,0.0,0.0,0.0,0.0,0.0,0.0,0.0,0.0,0.0,0.010995574287564275,-0.02809980095710871,-0.0012217304763960308,0.0,0.0,0.0,0.0,0.0,0.0,0.0,0.0,0.0,-0.17848102999999998,0.142196425,9.662492245,0.0,0.0,0.0,0.0,0.0,0.0,0.0,0.0,0.0
1704780845937527561,12224,1704780845937112652,imu_link,-0.006073421206441847,-0.0006544439301284376,0.6822539762699882,0.7310897326059106,0.0,0.0,0.0,0.0,0.0,0.0,0.0,0.0,0.0,-0.009599310885968814,-0.014486232791552934,0.0,0.0,0.0,0.0,0.0,0.0,0.0,0.0,0.0,0.0,0.31283213499999996,-0.157887065,9.712506159999998,0.0,0.0,0.0,0.0,0.0,0.0,0.0,0.0,0.0
1704780846038379071,12225,1704780846037851650,imu_link,-0.005707747643514971,-0.0007900768520286931,0.6821899046906846,0.7311523311414116,0.0,0.0,0.0,0.0,0.0,0.0,0.0,0.0,0.0,0.011868238913561443,-0.011693705988362009,-0.005235987755982988,0.0,0.0,0.0,0.0,0.0,0.0,0.0,0.0,0.0,0.23830159499999998,-0.28831551,9.80861133,0.0,0.0,0.0,0.0,0.0,0.0,0.0,0.0,0.0
1704780846137404175,12226,1704780846136965524,imu_link,-0.005031843237845207,-0.0008735009121860877,0.6819343765383931,0.7313955316003643,0.0,0.0,0.0,0.0,0.0,0.0,0.0,0.0,0.0,-0.01117010721276371,-0.00017453292519943296,-0.007330382858376183,0.0,0.0,0.0,0.0,0.0,0.0,0.0,0.0,0.0,0.12748644999999997,0.29812215999999997,9.88314187,0.0,0.0,0.0,0.0,0.0,0.0,0.0,0.0,0.0
1704780846237192603,12227,1704780846236739743,imu_link,-0.006053218173995153,-0.0018251315704916424,0.6818686623459477,0.7314473014202979,0.0,0.0,0.0,0.0,0.0,0.0,0.0,0.0,0.0,-0.03665191429188092,-0.005934119456780722,0.004537856055185257,0.0,0.0,0.0,0.0,0.0,0.0,0.0,0.0,0.0,-0.057859234999999995,-0.008825985,9.85960591,0.0,0.0,0.0,0.0,0.0,0.0,0.0,0.0,0.0
1704780846337855300,12228,1704780846337454088,imu_link,-0.0069497160050075064,-0.002785165115476461,0.6822482956928869,0.7310822165303164,0.0,0.0,0.0,0.0,0.0,0.0,0.0,0.0,0.0,-0.015533430342749534,0.0024434609527920616,0.0143116998663535,0.0,0.0,0.0,0.0,0.0,0.0,0.0,0.0,0.0,-0.0588399,-0.34715541,9.890006524999999,0.0,0.0,0.0,0.0,0.0,0.0,0.0,0.0,0.0
1704780846437645474,12229,1704780846437300955,imu_link,-0.007249844498296543,-0.0025945595454392517,0.6827593906034125,0.7306027118471244,0.0,0.0,0.0,0.0,0.0,0.0,0.0,0.0,0.0,0.0012217304763960308,0.021467549799530253,0.010995574287564275,0.0,0.0,0.0,0.0,0.0,0.0,0.0,0.0,0.0,0.102969825,-0.18240368999999998,9.63405296,0.0,0.0,0.0,0.0,0.0,0.0,0.0,0.0,0.0
1704780846537643920,12230,1704780846537247959,imu_link,-0.008138951940921667,-0.0015169510600661542,0.682954403930003,0.7304140869899752,0.0,0.0,0.0,0.0,0.0,0.0,0.0,0.0,0.0,0.006108652381980153,0.021467549799530253,0.00715584993317675,0.0,0.0,0.0,0.0,0.0,0.0,0.0,0.0,0.0,-0.13533177,-0.07943386499999999,9.85960591,0.0,0.0,0.0,0.0,0.0,0.0,0.0,0.0,0.0
1704780846638555345,12231,1704780846637941918,imu_link,-0.008113670416947515,-0.0007811382867168033,0.6833382410671031,0.730056440606245,0.0,0.0,0.0,0.0,0.0,0.0,0.0,0.0,0.0,0.020943951023931952,0.005585053606381855,0.013788101090755204,0.0,0.0,0.0,0.0,0.0,0.0,0.0,0.0,0.0,-0.12552512,-0.236340265,9.92040714,0.0,0.0,0.0,0.0,0.0,0.0,0.0,0.0,0.0
1704780846737729499,12232,1704780846737226917,imu_link,-0.007711107982713392,0.0001893489505096239,0.6837210431722761,0.7297027052739138,0.0,0.0,0.0,0.0,0.0,0.0,0.0,0.0,0.0,0.02181661564992912,0.010122909661567111,0.00715584993317675,0.0,0.0,0.0,0.0,0.0,0.0,0.0,0.0,0.0,-0.050013915,-0.008825985,9.689950864999998,0.0,0.0,0.0,0.0,0.0,0.0,0.0,0.0,0.0
1704780846837524391,12233,1704780846837088129,imu_link,-0.007639525778765874,0.0004937107691484251,0.6839119928051316,0.7295243518847506,0.0,0.0,0.0,0.0,0.0,0.0,0.0,0.0,0.0,-0.003490658503988659,0.0038397243543875246,0.006632251157578452,0.0,0.0,0.0,0.0,0.0,0.0,0.0,0.0,0.0,-0.09120184499999999,0.02157463,9.915503815000001,0.0,0.0,0.0,0.0,0.0,0.0,0.0,0.0,0.0
1704780846937723515,12234,1704780846937298806,imu_link,-0.008360047463366561,0.0011314415579289573,0.6841663879805583,0.7292771647350873,0.0,0.0,0.0,0.0,0.0,0.0,0.0,0.0,0.0,0.005061454830783556,0.026878070480712675,0.007330382858376183,0.0,0.0,0.0,0.0,0.0,0.0,0.0,0.0,0.0,-0.067665885,-0.206920315,9.59482636,0.0,0.0,0.0,0.0,0.0,0.0,0.0,0.0,0.0
1704780847037614652,12235,1704780847037132551,imu_link,-0.010342693212314714,0.0028589820492892614,0.6843541501905587,0.7290708141433971,0.0,0.0,0.0,0.0,0.0,0.0,0.0,0.0,0.0,-0.012042771838760872,0.08936085770210968,0.003316125578789226,0.0,0.0,0.0,0.0,0.0,0.0,0.0,0.0,0.0,0.31283213499999996,0.08629852,9.485972545,0.0,0.0,0.0,0.0,0.0,0.0,0.0,0.0,0.0
1704780847137473372,12236,1704780847137047627,imu_link,-0.013256189323810995,0.004431825255712753,0.6844125020093349,0.72896101367826,0.0,0.0,0.0,0.0,0.0,0.0,0.0,0.0,0.0,-0.03700098014227979,-0.03228859116189509,-0.00034906585039886593,0.0,0.0,0.0,0.0,0.0,0.0,0.0,0.0,0.0,-0.9816456649999998,-0.097085835,11.83466522,0.0,0.0,0.0,0.0,0.0,0.0,0.0,0.0,0.0
1704780847237252055,12237,1704780847236787417,imu_link,-0.010886857107000379,0.0012710510668372662,0.6843583044823007,0.7290634895930722,0.0,0.0,0.0,0.0,0.0,0.0,0.0,0.0,0.0,-0.00715584993317675,-0.024260076602721177,-0.0054105206811824215,0.0,0.0,0.0,0.0,0.0,0.0,0.0,0.0,0.0,-0.02941995,-0.401091985,8.777932415,0.0,0.0,0.0,0.0,0.0,0.0,0.0,0.0,0.0
1704780847337042647,12238,1704780847336627457,imu_link,-0.010158404170887533,0.0008793195241317588,0.6842310836291555,0.7291939781824497,0.0,0.0,0.0,0.0,0.0,0.0,0.0,0.0,0.0,-0.0010471975511965976,-0.06457718232379019,-0.0027925268031909274,0.0,0.0,0.0,0.0,0.0,0.0,0.0,0.0,0.0,-0.024516625,0.097085835,9.74977143,0.0,0.0,0.0,0.0,0.0,0.0,0.0,0.0,0.0
