%time,field.header.seq,field.header.stamp,field.header.frame_id,field.orientation.x,field.orientation.y,field.orientation.z,field.orientation.w,field.orientation_covariance0,field.orientation_covariance1,field.orientation_covariance2,field.orientation_covariance3,field.orientation_covariance4,field.orientation_covariance5,field.orientation_covariance6,field.orientation_covariance7,field.orientation_covariance8,field.angular_velocity.x,field.angular_velocity.y,field.angular_velocity.z,field.angular_velocity_covariance0,field.angular_velocity_covariance1,field.angular_velocity_covariance2,field.angular_velocity_covariance3,field.angular_velocity_covariance4,field.angular_velocity_covariance5,field.angular_velocity_covariance6,field.angular_velocity_covariance7,field.angular_velocity_covariance8,field.linear_acceleration.x,field.linear_acceleration.y,field.linear_acceleration.z,field.linear_acceleration_covariance0,field.linear_acceleration_covariance1,field.linear_acceleration_covariance2,field.linear_acceleration_covariance3,field.linear_acceleration_covariance4,field.linear_acceleration_covariance5,field.linear_acceleration_covariance6,field.linear_acceleration_covariance7,field.linear_acceleration_covariance8
1704779910031900780,2862,1704779910031667715,imu_link,0.0021190335402873194,0.0013585705168995604,-0.017891553697677903,0.9998367648217827,0.0,0.0,0.0,0.0,0.0,0.0,0.0,0.0,0.0,-0.0,0.00017453292519943296,0.00017453292519943296,0.0,0.0,0.0,0.0,0.0,0.0,0.0,0.0,0.0,-0.026477955,0.048052584999999995,9.821359975,0.0,0.0,0.0,0.0,0.0,0.0,0.0,0.0,0.0
1704779910131572139,2863,1704779910131295886,imu_link,0.0020317814550377352,0.0013601318418146355,-0.017891435072099792,0.9998369459349623,0.0,0.0,0.0,0.0,0.0,0.0,0.0,0.0,0.0,-0.0,-0.0005235987755982988,-0.0005235987755982988,0.0,0.0,0.0,0.0,0.0,0.0,0.0,0.0,0.0,-0.022555295,0.032361944999999996,9.819398645,0.0,0.0,0.0,0.0,0.0,0.0,0.0,0.0,0.0
1704779910231182498,2864,1704779910231023998,imu_link,0.0021190335402873194,0.0013585705168995604,-0.017891553697677903,0.9998367648217827,0.0,0.0,0.0,0.0,0.0,0.0,0.0,0.0,0.0,0.0008726646259971648,0.0,0.0005235987755982988,0.0,0.0,0.0,0.0,0.0,0.0,0.0,0.0,0.0,-0.02157463,0.03138128,9.834108619999999,0.0,0.0,0.0,0.0,0.0,0.0,0.0,0.0,0.0
1704779910331784900,2865,1704779910331439620,imu_link,0.0021190335402873194,0.0013585705168995604,-0.017891553697677903,0.9998367648217827,0.0,0.0,0.0,0.0,0.0,0.0,0.0,0.0,0.0,-0.00034906585039886593,-0.00034906585039886593,-0.00034906585039886593,0.0,0.0,0.0,0.0,0.0,0.0,0.0,0.0,0.0,-0.03530394,0.0392266,9.842934605,0.0,0.0,0.0,0.0,0.0,0.0,0.0,0.0,0.0
1704779910431870702,2866,1704779910431555798,imu_link,0.002117472710356676,0.0012713183090190452,-0.017891373068393904,0.9998368861113326,0.0,0.0,0.0,0.0,0.0,0.0,0.0,0.0,0.0,0.00034906585039886593,0.00034906585039886593,-0.0017453292519943296,0.0,0.0,0.0,0.0,0.0,0.0,0.0,0.0,0.0,-0.006864655,0.04412992499999999,9.81841798,0.0,0.0,0.0,0.0,0.0,0.0,0.0,0.0,0.0
1704779910531369208,2867,1704779910531118253,imu_link,0.0021190335402873194,0.0013585705168995604,-0.017891553697677903,0.9998367648217827,0.0,0.0,0.0,0.0,0.0,0.0,0.0,0.0,0.0,-0.0,-0.00034906585039886593,0.00017453292519943296,0.0,0.0,0.0,0.0,0.0,0.0,0.0,0.0,0.0,-0.05099458,0.033342609999999995,9.815475984999999,0.0,0.0,0.0,0.0,0.0,0.0,0.0,0.0,0.0
1704779910630973915,2868,1704779910630734964,imu_link,0.002117472710356676,0.0012713183090190452,-0.017891373068393904,0.9998368861113326,0.0,0.0,0.0,0.0,0.0,0.0,0.0,0.0,0.0,0.0005235987755982988,-0.0005235987755982988,0.0006981317007977319,0.0,0.0,0.0,0.0,0.0,0.0,0.0,0.0,0.0,0.0,0.038245934999999995,9.823321305,0.0,0.0,0.0,0.0,0.0,0.0,0.0,0.0,0.0
1704779910730842696,2869,1704779910730264928,imu_link,0.002117472710356676,0.0012713183090190452,-0.017891373068393904,0.9998368861113326,0.0,0.0,0.0,0.0,0.0,0.0,0.0,0.0,0.0,0.00017453292519943296,0.00034906585039886593,-0.00034906585039886593,0.0,0.0,0.0,0.0,0.0,0.0,0.0,0.0,0.0,-0.04314926,0.04511059,9.84391527,0.0,0.0,0.0,0.0,0.0,0.0,0.0,0.0,0.0
1704779910831320621,2870,1704779910831133048,imu_link,0.002117472710356676,0.0012713183090190452,-0.017891373068393904,0.9998368861113326,0.0,0.0,0.0,0.0,0.0,0.0,0.0,0.0,0.0,-0.0,-0.0005235987755982988,0.00017453292519943296,0.0,0.0,0.0,0.0,0.0,0.0,0.0,0.0,0.0,-0.01765197,0.032361944999999996,9.826263299999999,0.0,0.0,0.0,0.0,0.0,0.0,0.0,0.0,0.0
1704779910932602332,2871,1704779910932362731,imu_link,0.002117472710356676,0.0012713183090190452,-0.017891373068393904,0.9998368861113326,0.0,0.0,0.0,0.0,0.0,0.0,0.0,0.0,0.0,-0.00034906585039886593,0.0008726646259971648,-0.0006981317007977319,0.0,0.0,0.0,0.0,0.0,0.0,0.0,0.0,0.0,-0.036284605,0.048052584999999995,9.81645665,0.0,0.0,0.0,0.0,0.0,0.0,0.0,0.0,0.0
1704779911031146574,2872,1704779911030878691,imu_link,0.0020302206145285428,0.001272879618503498,-0.01789126205699576,0.9998370670883037,0.0,0.0,0.0,0.0,0.0,0.0,0.0,0.0,0.0,-0.0008726646259971648,-0.0012217304763960308,0.00034906585039886593,0.0,0.0,0.0,0.0,0.0,0.0,0.0,0.0,0.0,-0.02157463,0.037265269999999996,9.804688669999999,0.0,0.0,0.0,0.0,0.0,0.0,0.0,0.0,0.0
1704779911130585512,2873,1704779911130388878,imu_link,0.0020302206145285428,0.001272879618503498,-0.01789126205699576,0.9998370670883037,0.0,0.0,0.0,0.0,0.0,0.0,0.0,0.0,0.0,-0.0012217304763960308,0.0005235987755982988,0.00034906585039886593,0.0,0.0,0.0,0.0,0.0,0.0,0.0,0.0,0.0,-0.03138128,0.01569064,9.779191379999999,0.0,0.0,0.0,0.0,0.0,0.0,0.0,0.0,0.0
1704779911231532412,2874,1704779911231204878,imu_link,0.0020302206145285428,0.001272879618503498,-0.01789126205699576,0.9998370670883037,0.0,0.0,0.0,0.0,0.0,0.0,0.0,0.0,0.0,-0.0013962634015954637,-0.0012217304763960308,0.0,0.0,0.0,0.0,0.0,0.0,0.0,0.0,0.0,0.0,-0.03530394,0.06472388999999999,9.835089284999999,0.0,0.0,0.0,0.0,0.0,0.0,0.0,0.0,0.0
1704779911331773824,2875,1704779911330974580,imu_link,0.0019429683868430706,0.001274440920377253,-0.017891150909199936,0.9998372404513308,0.0,0.0,0.0,0.0,0.0,0.0,0.0,0.0,0.0,-0.0013962634015954637,0.0008726646259971648,-0.0005235987755982988,0.0,0.0,0.0,0.0,0.0,0.0,0.0,0.0,0.0,-0.006864655,0.01569064,9.85764458,0.0,0.0,0.0,0.0,0.0,0.0,0.0,0.0,0.0
1704779911430907248,2876,1704779911430619729,imu_link,0.0020302206145285428,0.001272879618503498,-0.01789126205699576,0.9998370670883037,0.0,0.0,0.0,0.0,0.0,0.0,0.0,0.0,0.0,0.004886921905584123,0.0010471975511965976,0.00034906585039886593,0.0,0.0,0.0,0.0,0.0,0.0,0.0,0.0,0.0,-0.04314926,0.04412992499999999,9.835089284999999,0.0,0.0,0.0,0.0,0.0,0.0,0.0,0.0,0.0
1704779911530311743,2877,1704779911529973334,imu_link,0.002117472710356676,0.0012713183090190452,-0.017891373068393904,0.9998368861113326,0.0,0.0,0.0,0.0,0.0,0.0,0.0,0.0,0.0,-0.00017453292519943296,-0.0005235987755982988,0.00017453292519943296,0.0,0.0,0.0,0.0,0.0,0.0,0.0,0.0,0.0,-0.01765197,0.08237586,9.907658495,0.0,0.0,0.0,0.0,0.0,0.0,0.0,0.0,0.0
1704779911631049939,2878,1704779911630860909,imu_link,0.002117472710356676,0.0012713183090190452,-0.017891373068393904,0.9998368861113326,0.0,0.0,0.0,0.0,0.0,0.0,0.0,0.0,0.0,-0.0006981317007977319,-0.00017453292519943296,-0.0,0.0,0.0,0.0,0.0,0.0,0.0,0.0,0.0,0.0,-0.032361944999999996,0.004903325,9.801746675,0.0,0.0,0.0,0.0,0.0,0.0,0.0,0.0,0.0
1704779911730633353,2879,1704779911730418710,imu_link,0.002117472710356676,0.0012713183090190452,-0.017891373068393904,0.9998368861113326,0.0,0.0,0.0,0.0,0.0,0.0,0.0,0.0,0.0,0.0005235987755982988,-0.00017453292519943296,0.0006981317007977319,0.0,0.0,0.0,0.0,0.0,0.0,0.0,0.0,0.0,-0.01765197,0.06080122999999999,9.76546207,0.0,0.0,0.0,0.0,0.0,0.0,0.0,0.0,0.0
1704779911830955293,2880,1704779911830395199,imu_link,0.002117472710356676,0.0012713183090190452,-0.017891373068393904,0.9998368861113326,0.0,0.0,0.0,0.0,0.0,0.0,0.0,0.0,0.0,-0.0005235987755982988,0.00034906585039886593,-0.00017453292519943296,0.0,0.0,0.0,0.0,0.0,0.0,0.0,0.0,0.0,-0.032361944999999996,0.030400614999999995,9.83018596,0.0,0.0,0.0,0.0,0.0,0.0,0.0,0.0,0.0
1704779911929974728,2881,1704779911929688552,imu_link,0.002117472710356676,0.0012713183090190452,-0.017891373068393904,0.9998368861113326,0.0,0.0,0.0,0.0,0.0,0.0,0.0,0.0,0.0,0.0010471975511965976,-0.00017453292519943296,-0.00017453292519943296,0.0,0.0,0.0,0.0,0.0,0.0,0.0,0.0,0.0,-0.0196133,0.034323275,9.86352857,0.0,0.0,0.0,0.0,0.0,0.0,0.0,0.0,0.0
1704779912031178005,2882,1704779912030638838,imu_link,0.002117472710356676,0.0012713183090190452,-0.017891373068393904,0.9998368861113326,0.0,0.0,0.0,0.0,0.0,0.0,0.0,0.0,0.0,-0.0005235987755982988,0.00034906585039886593,0.0006981317007977319,0.0,0.0,0.0,0.0,0.0,0.0,0.0,0.0,0.0,-0.030400614999999995,0.05687856999999999,9.826263299999999,0.0,0.0,0.0,0.0,0.0,0.0,0.0,0.0,0.0
1704779912130805254,2883,1704779912130390814,imu_link,0.002117472710356676,0.0012713183090190452,-0.017891373068393904,0.9998368861113326,0.0,0.0,0.0,0.0,0.0,0.0,0.0,0.0,0.0,-0.00017453292519943296,-0.0005235987755982988,0.00034906585039886593,0.0,0.0,0.0,0.0,0.0,0.0,0.0,0.0,0.0,-0.0196133,0.0196133,9.797824015,0.0,0.0,0.0,0.0,0.0,0.0,0.0,0.0,0.0
1704779912232607915,2884,1704779912231183246,imu_link,0.002117472710356676,0.0012713183090190452,-0.017891373068393904,0.9998368861113326,0.0,0.0,0.0,0.0,0.0,0.0,0.0,0.0,0.0,0.0005235987755982988,0.00034906585039886593,0.00034906585039886593,0.0,0.0,0.0,0.0,0.0,0.0,0.0,0.0,0.0,-0.02941995,0.05491724,9.82037931,0.0,0.0,0.0,0.0,0.0,0.0,0.0,0.0,0.0
1704779912330955691,2885,1704779912330569538,imu_link,0.002117472710356676,0.0012713183090190452,-0.017891373068393904,0.9998368861113326,0.0,0.0,0.0,0.0,0.0,0.0,0.0,0.0,0.0,-0.00034906585039886593,-0.0005235987755982988,0.00034906585039886593,0.0,0.0,0.0,0.0,0.0,0.0,0.0,0.0,0.0,-0.026477955,0.030400614999999995,9.83999261,0.0,0.0,0.0,0.0,0.0,0.0,0.0,0.0,0.0
1704779912430875882,2886,1704779912430433256,imu_link,0.002117472710356676,0.0012713183090190452,-0.017891373068393904,0.9998368861113326,0.0,0.0,0.0,0.0,0.0,0.0,0.0,0.0,0.0,0.0,0.0005235987755982988,0.00017453292519943296,0.0,0.0,0.0,0.0,0.0,0.0,0.0,0.0,0.0,-0.02745862,0.038245934999999995,9.832147289999998,0.0,0.0,0.0,0.0,0.0,0.0,0.0,0.0,0.0
1704779912530396038,2887,1704779912529930833,imu_link,0.0021173617655338857,0.0012715030773881426,-0.01780412603395003,0.9998384435273757,0.0,0.0,0.0,0.0,0.0,0.0,0.0,0.0,0.0,-0.0006981317007977319,0.00017453292519943296,0.0,0.0,0.0,0.0,0.0,0.0,0.0,0.0,0.0,0.0,-0.026477955,0.047071919999999996,9.812533989999999,0.0,0.0,0.0,0.0,0.0,0.0,0.0,0.0,0.0
1704779912631368785,2888,1704779912631007993,imu_link,0.0021173617655338857,0.0012715030773881426,-0.01780412603395003,0.9998384435273757,0.0,0.0,0.0,0.0,0.0,0.0,0.0,0.0,0.0,0.00017453292519943296,0.0005235987755982988,-0.0,0.0,0.0,0.0,0.0,0.0,0.0,0.0,0.0,0.0,-0.02549729,0.026477955,9.81841798,0.0,0.0,0.0,0.0,0.0,0.0,0.0,0.0,0.0
1704779912730827601,2889,1704779912730167247,imu_link,0.0021173617655338857,0.0012715030773881426,-0.01780412603395003,0.9998384435273757,0.0,0.0,0.0,0.0,0.0,0.0,0.0,0.0,0.0,0.00017453292519943296,-0.00034906585039886593,-0.00017453292519943296,0.0,0.0,0.0,0.0,0.0,0.0,0.0,0.0,0.0,-0.023535959999999998,0.055897905,9.83018596,0.0,0.0,0.0,0.0,0.0,0.0,0.0,0.0,0.0
1704779912830581194,2890,1704779912830083674,imu_link,0.0021173617655338857,0.0012715030773881426,-0.01780412603395003,0.9998384435273757,0.0,0.0,0.0,0.0,0.0,0.0,0.0,0.0,0.0,-0.00034906585039886593,0.0,0.00017453292519943296,0.0,0.0,0.0,0.0,0.0,0.0,0.0,0.0,0.0,-0.023535959999999998,0.032361944999999996,9.823321305,0.0,0.0,0.0,0.0,0.0,0.0,0.0,0.0,0.0
1704779912930674404,2891,1704779912929676840,imu_link,0.0021173617655338857,0.0012715030773881426,-0.01780412603395003,0.9998384435273757,0.0,0.0,0.0,0.0,0.0,0.0,0.0,0.0,0.0,0.00034906585039886593,0.00034906585039886593,0.00017453292519943296,0.0,0.0,0.0,0.0,0.0,0.0,0.0,0.0,0.0,-0.028439284999999995,0.040207265,9.819398645,0.0,0.0,0.0,0.0,0.0,0.0,0.0,0.0,0.0
1704779913030823325,2892,1704779913030279819,imu_link,0.0021173617655338857,0.0012715030773881426,-0.01780412603395003,0.9998384435273757,0.0,0.0,0.0,0.0,0.0,0.0,0.0,0.0,0.0,-0.00017453292519943296,0.0,-0.0,0.0,0.0,0.0,0.0,0.0,0.0,0.0,0.0,0.0,-0.024516625,0.040207265,9.82234064,0.0,0.0,0.0,0.0,0.0,0.0,0.0,0.0,0.0
1704779913132535137,2893,1704779913131985558,imu_link,0.0021173617655338857,0.0012715030773881426,-0.01780412603395003,0.9998384435273757,0.0,0.0,0.0,0.0,0.0,0.0,0.0,0.0,0.0,0.0005235987755982988,-0.00017453292519943296,-0.00017453292519943296,0.0,0.0,0.0,0.0,0.0,0.0,0.0,0.0,0.0,-0.02745862,0.033342609999999995,9.829205295,0.0,0.0,0.0,0.0,0.0,0.0,0.0,0.0,0.0
1704779913231255005,2894,1704779913230843824,imu_link,0.00211580853321691,0.0011842507239568825,-0.01780394525849675,0.9998385571869621,0.0,0.0,0.0,0.0,0.0,0.0,0.0,0.0,0.0,-0.00017453292519943296,-0.00017453292519943296,-0.00017453292519943296,0.0,0.0,0.0,0.0,0.0,0.0,0.0,0.0,0.0,-0.023535959999999998,0.04511059,9.826263299999999,0.0,0.0,0.0,0.0,0.0,0.0,0.0,0.0,0.0
1704779913331475628,2895,1704779913330304709,imu_link,0.00211580853321691,0.0011842507239568825,-0.01780394525849675,0.9998385571869621,0.0,0.0,0.0,0.0,0.0,0.0,0.0,0.0,0.0,0.00034906585039886593,0.00017453292519943296,-0.0005235987755982988,0.0,0.0,0.0,0.0,0.0,0.0,0.0,0.0,0.0,-0.026477955,0.033342609999999995,9.823321305,0.0,0.0,0.0,0.0,0.0,0.0,0.0,0.0,0.0
1704779913430427439,2896,1704779913430045072,imu_link,0.00211580853321691,0.0011842507239568825,-0.01780394525849675,0.9998385571869621,0.0,0.0,0.0,0.0,0.0,0.0,0.0,0.0,0.0,0.0,0.00017453292519943296,0.0,0.0,0.0,0.0,0.0,0.0,0.0,0.0,0.0,0.0,-0.024516625,0.04412992499999999,9.823321305,0.0,0.0,0.0,0.0,0.0,0.0,0.0,0.0,0.0
1704779913530041487,2897,1704779913529603690,imu_link,0.00211580853321691,0.0011842507239568825,-0.01780394525849675,0.9998385571869621,0.0,0.0,0.0,0.0,0.0,0.0,0.0,0.0,0.0,-0.00017453292519943296,-0.00034906585039886593,-0.0005235987755982988,0.0,0.0,0.0,0.0,0.0,0.0,0.0,0.0,0.0,-0.028439284999999995,0.038245934999999995,9.827243965,0.0,0.0,0.0,0.0,0.0,0.0,0.0,0.0,0.0
1704779913631286740,2898,1704779913630701869,imu_link,0.0021159118643005645,0.0011840660914568927,-0.01789119230285938,0.9998369997866932,0.0,0.0,0.0,0.0,0.0,0.0,0.0,0.0,0.0,-0.0,-0.00017453292519943296,-0.0005235987755982988,0.0,0.0,0.0,0.0,0.0,0.0,0.0,0.0,0.0,-0.024516625,0.040207265,9.827243965,0.0,0.0,0.0,0.0,0.0,0.0,0.0,0.0,0.0
1704779913730755127,2899,1704779913730249300,imu_link,0.0021159118643005645,0.0011840660914568927,-0.01789119230285938,0.9998369997866932,0.0,0.0,0.0,0.0,0.0,0.0,0.0,0.0,0.0,-0.00034906585039886593,0.00017453292519943296,0.00034906585039886593,0.0,0.0,0.0,0.0,0.0,0.0,0.0,0.0,0.0,-0.028439284999999995,0.04118793,9.823321305,0.0,0.0,0.0,0.0,0.0,0.0,0.0,0.0,0.0
1704779913830358954,2900,1704779913829948630,imu_link,0.0021159118643005645,0.0011840660914568927,-0.01789119230285938,0.9998369997866932,0.0,0.0,0.0,0.0,0.0,0.0,0.0,0.0,0.0,-0.0,0.00034906585039886593,-0.0,0.0,0.0,0.0,0.0,0.0,0.0,0.0,0.0,0.0,-0.023535959999999998,0.03530394,9.825282634999999,0.0,0.0,0.0,0.0,0.0,0.0,0.0,0.0,0.0
1704779913929880597,2901,1704779913929353544,imu_link,0.0021159118643005645,0.0011840660914568927,-0.01789119230285938,0.9998369997866932,0.0,0.0,0.0,0.0,0.0,0.0,0.0,0.0,0.0,0.0,0.00017453292519943296,-0.0008726646259971648,0.0,0.0,0.0,0.0,0.0,0.0,0.0,0.0,0.0,-0.026477955,0.04314926,9.825282634999999,0.0,0.0,0.0,0.0,0.0,0.0,0.0,0.0,0.0
1704779914030865783,2902,1704779914030096760,imu_link,0.0021159118643005645,0.0011840660914568927,-0.01789119230285938,0.9998369997866932,0.0,0.0,0.0,0.0,0.0,0.0,0.0,0.0,0.0,-0.00017453292519943296,-0.0,-0.0006981317007977319,0.0,0.0,0.0,0.0,0.0,0.0,0.0,0.0,0.0,-0.023535959999999998,0.036284605,9.825282634999999,0.0,0.0,0.0,0.0,0.0,0.0,0.0,0.0,0.0
1704779914131090102,2903,1704779914130574241,imu_link,0.0021159118643005645,0.0011840660914568927,-0.01789119230285938,0.9998369997866932,0.0,0.0,0.0,0.0,0.0,0.0,0.0,0.0,0.0,0.0,0.00034906585039886593,-0.00017453292519943296,0.0,0.0,0.0,0.0,0.0,0.0,0.0,0.0,0.0,-0.02549729,0.040207265,9.826263299999999,0.0,0.0,0.0,0.0,0.0,0.0,0.0,0.0,0.0
1704779914230160514,2904,1704779914229756338,imu_link,0.0020286597585583437,0.0011856273854988328,-0.017891088905642047,0.9998371806274545,0.0,0.0,0.0,0.0,0.0,0.0,0.0,0.0,0.0,0.00017453292519943296,-0.00017453292519943296,-0.0,0.0,0.0,0.0,0.0,0.0,0.0,0.0,0.0,0.0,-0.02549729,0.04118793,9.823321305,0.0,0.0,0.0,0.0,0.0,0.0,0.0,0.0,0.0
1704779914331003327,2905,1704779914330442789,imu_link,0.0020286597585583437,0.0011856273854988328,-0.017891088905642047,0.9998371806274545,0.0,0.0,0.0,0.0,0.0,0.0,0.0,0.0,0.0,0.00017453292519943296,0.00034906585039886593,0.00017453292519943296,0.0,0.0,0.0,0.0,0.0,0.0,0.0,0.0,0.0,-0.024516625,0.038245934999999995,9.825282634999999,0.0,0.0,0.0,0.0,0.0,0.0,0.0,0.0,0.0
1704779914430679388,2906,1704779914430166366,imu_link,0.0020286597585583437,0.0011856273854988328,-0.017891088905642047,0.9998371806274545,0.0,0.0,0.0,0.0,0.0,0.0,0.0,0.0,0.0,-0.0,-0.00017453292519943296,0.0,0.0,0.0,0.0,0.0,0.0,0.0,0.0,0.0,0.0,-0.02549729,0.04314926,9.82430197,0.0,0.0,0.0,0.0,0.0,0.0,0.0,0.0,0.0
1704779914529893070,2907,1704779914529308190,imu_link,0.0020286597585583437,0.0011856273854988328,-0.017891088905642047,0.9998371806274545,0.0,0.0,0.0,0.0,0.0,0.0,0.0,0.0,0.0,0.0,-0.00034906585039886593,0.0,0.0,0.0,0.0,0.0,0.0,0.0,0.0,0.0,0.0,-0.02549729,0.040207265,9.82430197,0.0,0.0,0.0,0.0,0.0,0.0,0.0,0.0,0.0
1704779914630534185,2908,1704779914630145843,imu_link,0.0021159118643005645,0.0011840660914568927,-0.01789119230285938,0.9998369997866932,0.0,0.0,0.0,0.0,0.0,0.0,0.0,0.0,0.0,0.00017453292519943296,0.00034906585039886593,0.00034906585039886593,0.0,0.0,0.0,0.0,0.0,0.0,0.0,0.0,0.0,-0.026477955,0.04118793,9.82430197,0.0,0.0,0.0,0.0,0.0,0.0,0.0,0.0,0.0
1704779914730171848,2909,1704779914729705292,imu_link,0.0021159118643005645,0.0011840660914568927,-0.01789119230285938,0.9998369997866932,0.0,0.0,0.0,0.0,0.0,0.0,0.0,0.0,0.0,-0.00017453292519943296,0.0005235987755982988,0.0005235987755982988,0.0,0.0,0.0,0.0,0.0,0.0,0.0,0.0,0.0,-0.02549729,0.0392266,9.827243965,0.0,0.0,0.0,0.0,0.0,0.0,0.0,0.0,0.0
1704779914829996682,2910,1704779914829504309,imu_link,0.0020286597585583437,0.0011856273854988328,-0.017891088905642047,0.9998371806274545,0.0,0.0,0.0,0.0,0.0,0.0,0.0,0.0,0.0,-0.0,0.0,0.00017453292519943296,0.0,0.0,0.0,0.0,0.0,0.0,0.0,0.0,0.0,-0.02549729,0.0392266,9.825282634999999,0.0,0.0,0.0,0.0,0.0,0.0,0.0,0.0,0.0
1704779914929484047,2911,1704779914929008997,imu_link,0.0020286597585583437,0.0011856273854988328,-0.017891088905642047,0.9998371806274545,0.0,0.0,0.0,0.0,0.0,0.0,0.0,0.0,0.0,0.0,-0.00017453292519943296,-0.00017453292519943296,0.0,0.0,0.0,0.0,0.0,0.0,0.0,0.0,0.0,-0.02549729,0.042168594999999996,9.825282634999999,0.0,0.0,0.0,0.0,0.0,0.0,0.0,0.0,0.0
1704779915030370159,2912,1704779915029949898,imu_link,0.002028556291566489,0.0011858044042694425,-0.017803841845499428,0.9998387380187003,0.0,0.0,0.0,0.0,0.0,0.0,0.0,0.0,0.0,0.0,0.00017453292519943296,0.0005235987755982988,0.0,0.0,0.0,0.0,0.0,0.0,0.0,0.0,0.0,-0.023535959999999998,0.0392266,9.82430197,0.0,0.0,0.0,0.0,0.0,0.0,0.0,0.0,0.0
1704779915129690478,2913,1704779915129269386,imu_link,0.002028556291566489,0.0011858044042694425,-0.017803841845499428,0.9998387380187003,0.0,0.0,0.0,0.0,0.0,0.0,0.0,0.0,0.0,0.00017453292519943296,-0.00017453292519943296,-0.00017453292519943296,0.0,0.0,0.0,0.0,0.0,0.0,0.0,0.0,0.0,-0.026477955,0.04118793,9.827243965,0.0,0.0,0.0,0.0,0.0,0.0,0.0,0.0,0.0
1704779915230740323,2914,1704779915230324966,imu_link,0.002028556291566489,0.0011858044042694425,-0.017803841845499428,0.9998387380187003,0.0,0.0,0.0,0.0,0.0,0.0,0.0,0.0,0.0,-0.0,0.0,-0.00034906585039886593,0.0,0.0,0.0,0.0,0.0,0.0,0.0,0.0,0.0,-0.02549729,0.040207265,9.826263299999999,0.0,0.0,0.0,0.0,0.0,0.0,0.0,0.0,0.0
1704779915330614554,2915,1704779915329761207,imu_link,0.002028556291566489,0.0011858044042694425,-0.017803841845499428,0.9998387380187003,0.0,0.0,0.0,0.0,0.0,0.0,0.0,0.0,0.0,0.00017453292519943296,0.0005235987755982988,0.00017453292519943296,0.0,0.0,0.0,0.0,0.0,0.0,0.0,0.0,0.0,-0.026477955,0.0392266,9.825282634999999,0.0,0.0,0.0,0.0,0.0,0.0,0.0,0.0,0.0
1704779915429946637,2916,1704779915429513958,imu_link,0.0020301095337962043,0.0012730567731440805,-0.017804015006760036,0.9998386244946592,0.0,0.0,0.0,0.0,0.0,0.0,0.0,0.0,0.0,0.0,0.0005235987755982988,0.00017453292519943296,0.0,0.0,0.0,0.0,0.0,0.0,0.0,0.0,0.0,-0.02549729,0.04118793,9.826263299999999,0.0,0.0,0.0,0.0,0.0,0.0,0.0,0.0,0.0
1704779915529468575,2917,1704779915529021160,imu_link,0.0020301095337962043,0.0012730567731440805,-0.017804015006760036,0.9998386244946592,0.0,0.0,0.0,0.0,0.0,0.0,0.0,0.0,0.0,-0.00017453292519943296,0.00017453292519943296,0.0,0.0,0.0,0.0,0.0,0.0,0.0,0.0,0.0,0.0,-0.02549729,0.0392266,9.826263299999999,0.0,0.0,0.0,0.0,0.0,0.0,0.0,0.0,0.0
1704779915630350985,2918,1704779915629926793,imu_link,0.0020301095337962043,0.0012730567731440805,-0.017804015006760036,0.9998386244946592,0.0,0.0,0.0,0.0,0.0,0.0,0.0,0.0,0.0,0.00017453292519943296,0.0,0.00034906585039886593,0.0,0.0,0.0,0.0,0.0,0.0,0.0,0.0,0.0,-0.024516625,0.0392266,9.82430197,0.0,0.0,0.0,0.0,0.0,0.0,0.0,0.0,0.0
1704779915729836654,2919,1704779915729414014,imu_link,0.0020302206145285428,0.001272879618503498,-0.01789126205699576,0.9998370670883037,0.0,0.0,0.0,0.0,0.0,0.0,0.0,0.0,0.0,-0.0,-0.00017453292519943296,-0.00034906585039886593,0.0,0.0,0.0,0.0,0.0,0.0,0.0,0.0,0.0,-0.024516625,0.04118793,9.825282634999999,0.0,0.0,0.0,0.0,0.0,0.0,0.0,0.0,0.0
1704779915829556573,2920,1704779915829181138,imu_link,0.0020302206145285428,0.001272879618503498,-0.01789126205699576,0.9998370670883037,0.0,0.0,0.0,0.0,0.0,0.0,0.0,0.0,0.0,-0.00017453292519943296,-0.0,-0.00034906585039886593,0.0,0.0,0.0,0.0,0.0,0.0,0.0,0.0,0.0,-0.02549729,0.040207265,9.82430197,0.0,0.0,0.0,0.0,0.0,0.0,0.0,0.0,0.0
1704779915929190996,2921,1704779915928786482,imu_link,0.0020302206145285428,0.001272879618503498,-0.01789126205699576,0.9998370670883037,0.0,0.0,0.0,0.0,0.0,0.0,0.0,0.0,0.0,-0.00017453292519943296,-0.00034906585039886593,0.0,0.0,0.0,0.0,0.0,0.0,0.0,0.0,0.0,0.0,-0.02549729,0.04118793,9.825282634999999,0.0,0.0,0.0,0.0,0.0,0.0,0.0,0.0,0.0
1704779916029803499,2922,1704779916029382649,imu_link,0.0020302206145285428,0.001272879618503498,-0.01789126205699576,0.9998370670883037,0.0,0.0,0.0,0.0,0.0,0.0,0.0,0.0,0.0,-0.0,0.00034906585039886593,0.0,0.0,0.0,0.0,0.0,0.0,0.0,0.0,0.0,0.0,-0.02549729,0.0392266,9.825282634999999,0.0,0.0,0.0,0.0,0.0,0.0,0.0,0.0,0.0
1704779916129787298,2923,1704779916129151963,imu_link,0.0020302206145285428,0.001272879618503498,-0.01789126205699576,0.9998370670883037,0.0,0.0,0.0,0.0,0.0,0.0,0.0,0.0,0.0,0.00017453292519943296,-0.0,0.0,0.0,0.0,0.0,0.0,0.0,0.0,0.0,0.0,0.0,-0.02549729,0.040207265,9.825282634999999,0.0,0.0,0.0,0.0,0.0,0.0,0.0,0.0,0.0
1704779916230417656,2924,1704779916229937468,imu_link,0.0020302206145285428,0.001272879618503498,-0.01789126205699576,0.9998370670883037,0.0,0.0,0.0,0.0,0.0,0.0,0.0,0.0,0.0,0.00017453292519943296,-0.00017453292519943296,-0.0,0.0,0.0,0.0,0.0,0.0,0.0,0.0,0.0,0.0,-0.02549729,0.0392266,9.825282634999999,0.0,0.0,0.0,0.0,0.0,0.0,0.0,0.0,0.0
1704779916329770493,2925,1704779916329275626,imu_link,0.0020302206145285428,0.001272879618503498,-0.01789126205699576,0.9998370670883037,0.0,0.0,0.0,0.0,0.0,0.0,0.0,0.0,0.0,-0.00017453292519943296,-0.00034906585039886593,0.0,0.0,0.0,0.0,0.0,0.0,0.0,0.0,0.0,0.0,-0.026477955,0.040207265,9.825282634999999,0.0,0.0,0.0,0.0,0.0,0.0,0.0,0.0,0.0
1704779916429647213,2926,1704779916429190112,imu_link,0.0020302206145285428,0.001272879618503498,-0.01789126205699576,0.9998370670883037,0.0,0.0,0.0,0.0,0.0,0.0,0.0,0.0,0.0,-0.00017453292519943296,0.0005235987755982988,-0.00017453292519943296,0.0,0.0,0.0,0.0,0.0,0.0,0.0,0.0,0.0,-0.024516625,0.0392266,9.82430197,0.0,0.0,0.0,0.0,0.0,0.0,0.0,0.0,0.0
1704779916529310644,2927,1704779916528896596,imu_link,0.0020302206145285428,0.001272879618503498,-0.01789126205699576,0.9998370670883037,0.0,0.0,0.0,0.0,0.0,0.0,0.0,0.0,0.0,0.0,0.0,0.0,0.0,0.0,0.0,0.0,0.0,0.0,0.0,0.0,0.0,-0.024516625,0.0392266,9.826263299999999,0.0,0.0,0.0,0.0,0.0,0.0,0.0,0.0,0.0
1704779916629942282,2928,1704779916629538760,imu_link,0.0020286597585583437,0.0011856273854988328,-0.017891088905642047,0.9998371806274545,0.0,0.0,0.0,0.0,0.0,0.0,0.0,0.0,0.0,-0.0005235987755982988,-0.0008726646259971648,-0.0,0.0,0.0,0.0,0.0,0.0,0.0,0.0,0.0,0.0,-0.026477955,0.042168594999999996,9.825282634999999,0.0,0.0,0.0,0.0,0.0,0.0,0.0,0.0,0.0
1704779916729500192,2929,1704779916729056875,imu_link,0.0020286597585583437,0.0011856273854988328,-0.017891088905642047,0.9998371806274545,0.0,0.0,0.0,0.0,0.0,0.0,0.0,0.0,0.0,-0.00034906585039886593,-0.00034906585039886593,-0.00017453292519943296,0.0,0.0,0.0,0.0,0.0,0.0,0.0,0.0,0.0,-0.018632634999999998,0.040207265,9.825282634999999,0.0,0.0,0.0,0.0,0.0,0.0,0.0,0.0,0.0
1704779916829443288,2930,1704779916829045153,imu_link,0.0020286597585583437,0.0011856273854988328,-0.017891088905642047,0.9998371806274545,0.0,0.0,0.0,0.0,0.0,0.0,0.0,0.0,0.0,-0.00034906585039886593,0.00017453292519943296,0.0,0.0,0.0,0.0,0.0,0.0,0.0,0.0,0.0,0.0,-0.053936574999999994,0.055897905,9.7674234,0.0,0.0,0.0,0.0,0.0,0.0,0.0,0.0,0.0
1704779916928903522,2931,1704779916928433920,imu_link,0.0020286597585583437,0.0011856273854988328,-0.017891088905642047,0.9998371806274545,0.0,0.0,0.0,0.0,0.0,0.0,0.0,0.0,0.0,0.00034906585039886593,-0.00034906585039886593,0.0005235987755982988,0.0,0.0,0.0,0.0,0.0,0.0,0.0,0.0,0.0,-0.01569064,0.04118793,9.826263299999999,0.0,0.0,0.0,0.0,0.0,0.0,0.0,0.0,0.0
1704779917029294926,2932,1704779917028887469,imu_link,0.0021159118643005645,0.0011840660914568927,-0.01789119230285938,0.9998369997866932,0.0,0.0,0.0,0.0,0.0,0.0,0.0,0.0,0.0,0.00017453292519943296,-0.00017453292519943296,-0.0,0.0,0.0,0.0,0.0,0.0,0.0,0.0,0.0,0.0,-0.026477955,0.04314926,9.825282634999999,0.0,0.0,0.0,0.0,0.0,0.0,0.0,0.0,0.0
1704779917129275488,2933,1704779917128813642,imu_link,0.0020286597585583437,0.0011856273854988328,-0.017891088905642047,0.9998371806274545,0.0,0.0,0.0,0.0,0.0,0.0,0.0,0.0,0.0,-0.00034906585039886593,-0.00017453292519943296,0.00034906585039886593,0.0,0.0,0.0,0.0,0.0,0.0,0.0,0.0,0.0,-0.02549729,0.0392266,9.829205295,0.0,0.0,0.0,0.0,0.0,0.0,0.0,0.0,0.0
1704779917229805263,2934,1704779917229397562,imu_link,0.0020286597585583437,0.0011856273854988328,-0.017891088905642047,0.9998371806274545,0.0,0.0,0.0,0.0,0.0,0.0,0.0,0.0,0.0,-0.00017453292519943296,0.0,0.00017453292519943296,0.0,0.0,0.0,0.0,0.0,0.0,0.0,0.0,0.0,-0.026477955,0.0392266,9.826263299999999,0.0,0.0,0.0,0.0,0.0,0.0,0.0,0.0,0.0
1704779917329599324,2935,1704779917329225379,imu_link,0.0020286597585583437,0.0011856273854988328,-0.017891088905642047,0.9998371806274545,0.0,0.0,0.0,0.0,0.0,0.0,0.0,0.0,0.0,0.0,0.0005235987755982988,0.00034906585039886593,0.0,0.0,0.0,0.0,0.0,0.0,0.0,0.0,0.0,-0.02549729,0.040207265,9.82430197,0.0,0.0,0.0,0.0,0.0,0.0,0.0,0.0,0.0
1704779917428613168,2936,1704779917428176196,imu_link,0.0020286597585583437,0.0011856273854988328,-0.017891088905642047,0.9998371806274545,0.0,0.0,0.0,0.0,0.0,0.0,0.0,0.0,0.0,0.00034906585039886593,0.00034906585039886593,-0.00017453292519943296,0.0,0.0,0.0,0.0,0.0,0.0,0.0,0.0,0.0,-0.026477955,0.04118793,9.82430197,0.0,0.0,0.0,0.0,0.0,0.0,0.0,0.0,0.0
1704779917529113792,2937,1704779917528746603,imu_link,0.0020286597585583437,0.0011856273854988328,-0.017891088905642047,0.9998371806274545,0.0,0.0,0.0,0.0,0.0,0.0,0.0,0.0,0.0,-0.0,-0.00017453292519943296,0.00034906585039886593,0.0,0.0,0.0,0.0,0.0,0.0,0.0,0.0,0.0,-0.02549729,0.040207265,9.826263299999999,0.0,0.0,0.0,0.0,0.0,0.0,0.0,0.0,0.0
1704779917629166073,2938,1704779917628794082,imu_link,0.0020302206145285428,0.001272879618503498,-0.01789126205699576,0.9998370670883037,0.0,0.0,0.0,0.0,0.0,0.0,0.0,0.0,0.0,-0.0,0.0,0.00017453292519943296,0.0,0.0,0.0,0.0,0.0,0.0,0.0,0.0,0.0,-0.024516625,0.0392266,9.827243965,0.0,0.0,0.0,0.0,0.0,0.0,0.0,0.0,0.0
1704779917729624306,2939,1704779917729222527,imu_link,0.0020286597585583437,0.0011856273854988328,-0.017891088905642047,0.9998371806274545,0.0,0.0,0.0,0.0,0.0,0.0,0.0,0.0,0.0,0.00017453292519943296,0.00017453292519943296,-0.0006981317007977319,0.0,0.0,0.0,0.0,0.0,0.0,0.0,0.0,0.0,-0.026477955,0.04118793,9.826263299999999,0.0,0.0,0.0,0.0,0.0,0.0,0.0,0.0,0.0
1704779917828956183,2940,1704779917828502232,imu_link,0.0020286597585583437,0.0011856273854988328,-0.017891088905642047,0.9998371806274545,0.0,0.0,0.0,0.0,0.0,0.0,0.0,0.0,0.0,-0.00017453292519943296,0.00017453292519943296,-0.00017453292519943296,0.0,0.0,0.0,0.0,0.0,0.0,0.0,0.0,0.0,-0.024516625,0.040207265,9.82430197,0.0,0.0,0.0,0.0,0.0,0.0,0.0,0.0,0.0
1704779917928741634,2941,1704779917928284053,imu_link,0.0020286597585583437,0.0011856273854988328,-0.017891088905642047,0.9998371806274545,0.0,0.0,0.0,0.0,0.0,0.0,0.0,0.0,0.0,-0.00017453292519943296,0.0,-0.00017453292519943296,0.0,0.0,0.0,0.0,0.0,0.0,0.0,0.0,0.0,-0.02549729,0.038245934999999995,9.825282634999999,0.0,0.0,0.0,0.0,0.0,0.0,0.0,0.0,0.0
1704779918029522924,2942,1704779918029176390,imu_link,0.0020302206145285428,0.001272879618503498,-0.01789126205699576,0.9998370670883037,0.0,0.0,0.0,0.0,0.0,0.0,0.0,0.0,0.0,-0.0,0.00034906585039886593,-0.00034906585039886593,0.0,0.0,0.0,0.0,0.0,0.0,0.0,0.0,0.0,-0.020593965,0.0392266,9.829205295,0.0,0.0,0.0,0.0,0.0,0.0,0.0,0.0,0.0
1704779918128818129,2943,1704779918128315779,imu_link,0.0020302206145285428,0.001272879618503498,-0.01789126205699576,0.9998370670883037,0.0,0.0,0.0,0.0,0.0,0.0,0.0,0.0,0.0,-0.00017453292519943296,0.00017453292519943296,-0.00034906585039886593,0.0,0.0,0.0,0.0,0.0,0.0,0.0,0.0,0.0,-0.0029419949999999998,0.037265269999999996,9.838031280000001,0.0,0.0,0.0,0.0,0.0,0.0,0.0,0.0,0.0
1704779918229608145,2944,1704779918229115229,imu_link,0.002027098887139026,0.0010983751434651037,-0.017890915618039977,0.999837286552414,0.0,0.0,0.0,0.0,0.0,0.0,0.0,0.0,0.0,-0.0006981317007977319,-0.00471238898038469,0.00017453292519943296,0.0,0.0,0.0,0.0,0.0,0.0,0.0,0.0,0.0,0.31773545999999997,0.059820565,9.803708004999999,0.0,0.0,0.0,0.0,0.0,0.0,0.0,0.0,0.0
1704779918329424941,2945,1704779918329051326,imu_link,0.002023977096959436,0.0009238705767701031,-0.017890568633980235,0.9998374755598138,0.0,0.0,0.0,0.0,0.0,0.0,0.0,0.0,0.0,-0.0015707963267948967,-0.005934119456780722,0.0008726646259971648,0.0,0.0,0.0,0.0,0.0,0.0,0.0,0.0,0.0,0.534462425,0.022555295,9.837050615,0.0,0.0,0.0,0.0,0.0,0.0,0.0,0.0,0.0
1704779918428101534,2946,1704779918427702260,imu_link,0.002023977096959436,0.0009238705767701031,-0.017890568633980235,0.9998374755598138,0.0,0.0,0.0,0.0,0.0,0.0,0.0,0.0,0.0,0.0024434609527920616,0.005759586531581288,-0.0,0.0,0.0,0.0,0.0,0.0,0.0,0.0,0.0,0.0,0.43933792,0.00980665,9.899813175,0.0,0.0,0.0,0.0,0.0,0.0,0.0,0.0,0.0
1704779918528828006,2947,1704779918528382738,imu_link,0.002106488798252101,0.0006607362626405034,-0.017802857758182647,0.9998390792463435,0.0,0.0,0.0,0.0,0.0,0.0,0.0,0.0,0.0,0.00034906585039886593,-0.0015707963267948967,0.0020943951023931952,0.0,0.0,0.0,0.0,0.0,0.0,0.0,0.0,0.0,0.528578435,0.06472388999999999,9.804688669999999,0.0,0.0,0.0,0.0,0.0,0.0,0.0,0.0,0.0
1704779918629078693,2948,1704779918628722823,imu_link,0.0021095954408672075,0.0008352411102941057,-0.017803220800608213,0.9998389356833871,0.0,0.0,0.0,0.0,0.0,0.0,0.0,0.0,0.0,-0.0015707963267948967,0.004363323129985824,-0.0006981317007977319,0.0,0.0,0.0,0.0,0.0,0.0,0.0,0.0,0.0,0.485429175,0.046091255,9.848818595,0.0,0.0,0.0,0.0,0.0,0.0,0.0,0.0,0.0
1704779918728780490,2949,1704779918728301840,imu_link,0.0021110682326684134,0.0009226777718709941,-0.0177161549128165,0.99984040222015,0.0,0.0,0.0,0.0,0.0,0.0,0.0,0.0,0.0,0.0031415926535897933,0.01064650843716541,-0.0,0.0,0.0,0.0,0.0,0.0,0.0,0.0,0.0,0.0,0.257914895,-0.008825985,9.792920689999999,0.0,0.0,0.0,0.0,0.0,0.0,0.0,0.0,0.0
1704779918828462608,2950,1704779918828081128,imu_link,0.0022903134331009665,0.0011811433279972218,-0.017804151678287534,0.999838172679876,0.0,0.0,0.0,0.0,0.0,0.0,0.0,0.0,0.0,0.0015707963267948967,0.0012217304763960308,-0.00034906585039886593,0.0,0.0,0.0,0.0,0.0,0.0,0.0,0.0,0.0,0.30596747999999996,0.07256921,9.703680175,0.0,0.0,0.0,0.0,0.0,0.0,0.0,0.0,0.0
1704779918928733642,2951,1704779918928261614,imu_link,0.0022091401154545856,0.0015318992135347018,-0.017717554161783795,0.9998394177363052,0.0,0.0,0.0,0.0,0.0,0.0,0.0,0.0,0.0,-0.0013962634015954637,0.010995574287564275,0.0010471975511965976,0.0,0.0,0.0,0.0,0.0,0.0,0.0,0.0,0.0,0.10395048999999999,0.028439284999999995,9.77723005,0.0,0.0,0.0,0.0,0.0,0.0,0.0,0.0,0.0
1704779919028157719,2952,1704779919027739455,imu_link,0.002212231181457667,0.0017064040609036002,-0.01771792974664599,0.9998391216510152,0.0,0.0,0.0,0.0,0.0,0.0,0.0,0.0,0.0,0.0024434609527920616,-0.0036651914291880917,0.0005235987755982988,0.0,0.0,0.0,0.0,0.0,0.0,0.0,0.0,0.0,0.038245934999999995,-0.0029419949999999998,9.839011945000001,0.0,0.0,0.0,0.0,0.0,0.0,0.0,0.0,0.0
1704779919129018160,2953,1704779919128592879,imu_link,0.0022165240168056473,0.0019685483444334038,-0.017543938012503854,0.9998416985091749,0.0,0.0,0.0,0.0,0.0,0.0,0.0,0.0,0.0,-0.0006981317007977319,0.010122909661567111,0.0031415926535897933,0.0,0.0,0.0,0.0,0.0,0.0,0.0,0.0,0.0,-0.040207265,0.083356525,9.733100125,0.0,0.0,0.0,0.0,0.0,0.0,0.0,0.0,0.0
1704779919229318925,2954,1704779919228913107,imu_link,0.0020404884637158552,0.0018843576320223881,-0.01754342204667887,0.9998422445296238,0.0,0.0,0.0,0.0,0.0,0.0,0.0,0.0,0.0,-0.0038397243543875246,-0.012217304763960306,-0.0020943951023931952,0.0,0.0,0.0,0.0,0.0,0.0,0.0,0.0,0.0,0.02745862,0.024516625,9.774288055,0.0,0.0,0.0,0.0,0.0,0.0,0.0,0.0,0.0
1704779919329171736,2955,1704779919328726576,imu_link,0.0020404884637158552,0.0018843576320223881,-0.01754342204667887,0.9998422445296238,0.0,0.0,0.0,0.0,0.0,0.0,0.0,0.0,0.0,0.0008726646259971648,0.008203047484373348,0.0022689280275926286,0.0,0.0,0.0,0.0,0.0,0.0,0.0,0.0,0.0,0.04903325,0.038245934999999995,9.97728571,0.0,0.0,0.0,0.0,0.0,0.0,0.0,0.0,0.0
1704779919428226132,2956,1704779919427662391,imu_link,0.0019517054802958922,0.0017986357549688583,-0.017543092896900012,0.9998425854337021,0.0,0.0,0.0,0.0,0.0,0.0,0.0,0.0,0.0,-0.0041887902047863905,-0.0019198621771937623,0.0,0.0,0.0,0.0,0.0,0.0,0.0,0.0,0.0,0.0,0.405014645,0.11375713999999998,9.66739557,0.0,0.0,0.0,0.0,0.0,0.0,0.0,0.0,0.0
1704779919528456568,2957,1704779919528112905,imu_link,0.0016040597021453502,0.0018921521936403293,-0.017455350600493268,0.99984456666422,0.0,0.0,0.0,0.0,0.0,0.0,0.0,0.0,0.0,-0.007504915783575617,0.0012217304763960308,0.0005235987755982988,0.0,0.0,0.0,0.0,0.0,0.0,0.0,0.0,0.0,0.32558077999999996,-0.00784532,9.974343714999998,0.0,0.0,0.0,0.0,0.0,0.0,0.0,0.0,0.0
1704779919628728355,2958,1704779919628235096,imu_link,0.0014265082500538322,0.0017206927434361265,-0.017454782017336964,0.9998451554492939,0.0,0.0,0.0,0.0,0.0,0.0,0.0,0.0,0.0,0.0031415926535897933,-0.0008726646259971648,0.0020943951023931952,0.0,0.0,0.0,0.0,0.0,0.0,0.0,0.0,0.0,0.44227991499999997,-0.023535959999999998,9.78311404,0.0,0.0,0.0,0.0,0.0,0.0,0.0,0.0,0.0
1704779919728342338,2959,1704779919727896537,imu_link,0.001516476193341232,0.0018939401426539906,-0.01728068985041599,0.9998477339320146,0.0,0.0,0.0,0.0,0.0,0.0,0.0,0.0,0.0,0.005235987755982988,-0.00017453292519943296,0.002967059728390361,0.0,0.0,0.0,0.0,0.0,0.0,0.0,0.0,0.0,0.565843705,0.04118793,9.549715769999999,0.0,0.0,0.0,0.0,0.0,0.0,0.0,0.0,0.0
1704779919828265750,2960,1704779919827902485,imu_link,0.0014275576965707693,0.0018083194432557872,-0.017193157503097488,0.9998495323771912,0.0,0.0,0.0,0.0,0.0,0.0,0.0,0.0,0.0,0.00034906585039886593,0.0027925268031909274,0.0020943951023931952,0.0,0.0,0.0,0.0,0.0,0.0,0.0,0.0,0.0,0.5432884099999999,-0.011767979999999999,9.768404064999999,0.0,0.0,0.0,0.0,0.0,0.0,0.0,0.0,0.0
1704779919928234839,2961,1704779919927746097,imu_link,0.0015163109200783413,0.0018940724649754313,-0.017193441871703293,0.9998492380590662,0.0,0.0,0.0,0.0,0.0,0.0,0.0,0.0,0.0,-0.00017453292519943296,-0.0020943951023931952,0.00017453292519943296,0.0,0.0,0.0,0.0,0.0,0.0,0.0,0.0,0.0,0.40207265,0.0392266,9.897851845,0.0,0.0,0.0,0.0,0.0,0.0,0.0,0.0,0.0
1704779920027994461,2962,1704779920027528413,imu_link,0.0016002646239131916,0.0017183446504731282,-0.017018842096703075,0.9998524118381087,0.0,0.0,0.0,0.0,0.0,0.0,0.0,0.0,0.0,0.0013962634015954637,0.005585053606381855,0.0020943951023931952,0.0,0.0,0.0,0.0,0.0,0.0,0.0,0.0,0.0,0.49621648999999995,0.04314926,9.99689901,0.0,0.0,0.0,0.0,0.0,0.0,0.0,0.0,0.0
1704779920128651217,2963,1704779920128226064,imu_link,0.0017777410285003297,0.0018898814512062446,-0.017019440875315685,0.9998517923258564,0.0,0.0,0.0,0.0,0.0,0.0,0.0,0.0,0.0,0.005585053606381855,0.0020943951023931952,0.0008726646259971648,0.0,0.0,0.0,0.0,0.0,0.0,0.0,0.0,0.0,0.534462425,-0.040207265,9.680144214999999,0.0,0.0,0.0,0.0,0.0,0.0,0.0,0.0,0.0
1704779920227902232,2964,1704779920227495082,imu_link,0.00212675493344551,0.0018839404322174176,-0.017020099531314035,0.999851110862935,0.0,0.0,0.0,0.0,0.0,0.0,0.0,0.0,0.0,0.015184364492350668,-0.00034906585039886593,0.0015707963267948967,0.0,0.0,0.0,0.0,0.0,0.0,0.0,0.0,0.0,0.52759777,0.04903325,9.837050615,0.0,0.0,0.0,0.0,0.0,0.0,0.0,0.0,0.0
1704779920327460197,2965,1704779920327024496,imu_link,0.002388351295650749,0.0018796929328672286,-0.016933343941752343,0.9998520012459428,0.0,0.0,0.0,0.0,0.0,0.0,0.0,0.0,0.0,0.0022689280275926286,-0.003490658503988659,0.0019198621771937623,0.0,0.0,0.0,0.0,0.0,0.0,0.0,0.0,0.0,0.383440015,0.167693715,9.94786576,0.0,0.0,0.0,0.0,0.0,0.0,0.0,0.0,0.0
1704779920428220401,2966,1704779920427834453,imu_link,0.0024739717155954377,0.001791177457584619,-0.016846049136275163,0.9998534301465212,0.0,0.0,0.0,0.0,0.0,0.0,0.0,0.0,0.0,0.005235987755982988,0.0020943951023931952,0.0012217304763960308,0.0,0.0,0.0,0.0,0.0,0.0,0.0,0.0,0.0,0.320677455,-0.018632634999999998,9.799785344999998,0.0,0.0,0.0,0.0,0.0,0.0,0.0,0.0,0.0
1704779920528219722,2967,1704779920527761028,imu_link,0.0026468612382887042,0.0017012145858534985,-0.016758887249259415,0.9998546092771112,0.0,0.0,0.0,0.0,0.0,0.0,0.0,0.0,0.0,0.0027925268031909274,-0.006981317007977318,0.0019198621771937623,0.0,0.0,0.0,0.0,0.0,0.0,0.0,0.0,0.0,0.230456275,0.08237586,9.782133375,0.0,0.0,0.0,0.0,0.0,0.0,0.0,0.0,0.0
1704779920628057821,2968,1704779920627550416,imu_link,0.002731058502976593,0.0015254830596043514,-0.01667126022547937,0.9998561313025902,0.0,0.0,0.0,0.0,0.0,0.0,0.0,0.0,0.0,0.0024434609527920616,-0.00017453292519943296,0.0015707963267948967,0.0,0.0,0.0,0.0,0.0,0.0,0.0,0.0,0.0,0.106892485,0.05687856999999999,9.729177465,0.0,0.0,0.0,0.0,0.0,0.0,0.0,0.0,0.0
1704779920728516368,2969,1704779920728174705,imu_link,0.0029039868808892057,0.001435572788164149,-0.01658402848740724,0.999857227803097,0.0,0.0,0.0,0.0,0.0,0.0,0.0,0.0,0.0,0.00471238898038469,-0.005585053606381855,-0.0013962634015954637,0.0,0.0,0.0,0.0,0.0,0.0,0.0,0.0,0.0,0.023535959999999998,-0.006864655,9.903735834999999,0.0,0.0,0.0,0.0,0.0,0.0,0.0,0.0,0.0
1704779920827671823,2970,1704779920827273990,imu_link,0.0029027757342379897,0.0013478120391624533,-0.016758336144717417,0.9998544471398847,0.0,0.0,0.0,0.0,0.0,0.0,0.0,0.0,0.0,-0.0054105206811824215,0.004363323129985824,-0.004363323129985824,0.0,0.0,0.0,0.0,0.0,0.0,0.0,0.0,0.0,-0.033342609999999995,0.21868829499999998,9.704660839999999,0.0,0.0,0.0,0.0,0.0,0.0,0.0,0.0,0.0
1704779920927655807,2971,1704779920927168786,imu_link,0.002296525664167485,0.0016196102001041304,-0.016845345445142743,0.9998541579498019,0.0,0.0,0.0,0.0,0.0,0.0,0.0,0.0,0.0,-0.005934119456780722,0.0010471975511965976,0.0008726646259971648,0.0,0.0,0.0,0.0,0.0,0.0,0.0,0.0,0.0,-0.087279185,-0.07453053999999999,9.80665,0.0,0.0,0.0,0.0,0.0,0.0,0.0,0.0,0.0
1704779921028787186,2972,1704779921028221476,imu_link,0.002212210573371028,0.0017955876822525383,-0.016845579629733716,0.9998540435664562,0.0,0.0,0.0,0.0,0.0,0.0,0.0,0.0,0.0,0.002617993877991494,0.007504915783575617,-0.0013962634015954637,0.0,0.0,0.0,0.0,0.0,0.0,0.0,0.0,0.0,-0.1372931,0.012748645,9.77330739,0.0,0.0,0.0,0.0,0.0,0.0,0.0,0.0,0.0
1704779921128352668,2973,1704779921127869822,imu_link,0.0022169775853148666,0.002056961876691199,-0.017020638625807844,0.9998505647240461,0.0,0.0,0.0,0.0,0.0,0.0,0.0,0.0,0.0,-0.002617993877991494,0.003490658503988659,-0.0020943951023931952,0.0,0.0,0.0,0.0,0.0,0.0,0.0,0.0,0.0,-0.114737805,0.15102241,9.78311404,0.0,0.0,0.0,0.0,0.0,0.0,0.0,0.0,0.0
1704779921227066721,2974,1704779921226557188,imu_link,0.001960945185695763,0.0024106028516555906,-0.016933507911601416,0.9998517890155909,0.0,0.0,0.0,0.0,0.0,0.0,0.0,0.0,0.0,0.0019198621771937623,0.01117010721276371,0.003316125578789226,0.0,0.0,0.0,0.0,0.0,0.0,0.0,0.0,0.0,-0.230456275,-0.05099458,10.009647654999998,0.0,0.0,0.0,0.0,0.0,0.0,0.0,0.0,0.0
1704779921328326008,2975,1704779921327983782,imu_link,0.0019680811134255086,0.002847042065979048,-0.01684707759692435,0.9998520875532784,0.0,0.0,0.0,0.0,0.0,0.0,0.0,0.0,0.0,-0.0017453292519943296,0.010122909661567111,0.0,0.0,0.0,0.0,0.0,0.0,0.0,0.0,0.0,0.0,-0.10395048999999999,0.15886772999999998,9.672298894999999,0.0,0.0,0.0,0.0,0.0,0.0,0.0,0.0,0.0
1704779921427706988,2976,1704779921427299699,imu_link,0.0014501571045551745,0.003205003642121451,-0.01675880559875867,0.9998533729657211,0.0,0.0,0.0,0.0,0.0,0.0,0.0,0.0,0.0,-0.024434609527920613,-0.0005235987755982988,0.003316125578789226,0.0,0.0,0.0,0.0,0.0,0.0,0.0,0.0,0.0,-0.195152335,0.19024901,9.909619824999998,0.0,0.0,0.0,0.0,0.0,0.0,0.0,0.0,0.0
1704779921527767547,2977,1704779921527349129,imu_link,0.00048257021116327717,0.0027849047002195602,-0.016580995893617674,0.9998585309967495,0.0,0.0,0.0,0.0,0.0,0.0,0.0,0.0,0.0,-0.008552113334772213,-0.019896753472735354,0.004886921905584123,0.0,0.0,0.0,0.0,0.0,0.0,0.0,0.0,0.0,-0.2353596,-0.283412185,9.886083865,0.0,0.0,0.0,0.0,0.0,0.0,0.0,0.0,0.0
1704779921627977764,2978,1704779921627621534,imu_link,0.0008166205442500288,0.0019067886554818135,-0.016319568184701254,0.9998646753347048,0.0,0.0,0.0,0.0,0.0,0.0,0.0,0.0,0.0,0.01832595714594046,-0.0027925268031909274,0.0024434609527920616,0.0,0.0,0.0,0.0,0.0,0.0,0.0,0.0,0.0,-0.0058839899999999995,-0.0196133,9.759578079999999,0.0,0.0,0.0,0.0,0.0,0.0,0.0,0.0,0.0
1704779921727919414,2979,1704779921727440784,imu_link,0.0014274028756732144,0.001896819244267477,-0.016320729930562668,0.9998639899367907,0.0,0.0,0.0,0.0,0.0,0.0,0.0,0.0,0.0,0.0041887902047863905,-0.004537856055185257,0.0013962634015954637,0.0,0.0,0.0,0.0,0.0,0.0,0.0,0.0,0.0,-0.0588399,0.25693423,9.678182885,0.0,0.0,0.0,0.0,0.0,0.0,0.0,0.0,0.0
1704779921827917538,2980,1704779921827412648,imu_link,0.0011624900994683686,0.0017267854868351108,-0.01614554100356071,0.9998674853871156,0.0,0.0,0.0,0.0,0.0,0.0,0.0,0.0,0.0,-0.0054105206811824215,0.0017453292519943296,0.0036651914291880917,0.0,0.0,0.0,0.0,0.0,0.0,0.0,0.0,0.0,0.065704555,-0.09218251,9.833127954999998,0.0,0.0,0.0,0.0,0.0,0.0,0.0,0.0,0.0
1704779921928809483,2981,1704779921928442373,imu_link,0.0012522305703182113,0.0019001049196238338,-0.01597140022973512,0.9998698594790199,0.0,0.0,0.0,0.0,0.0,0.0,0.0,0.0,0.0,0.0027925268031909274,0.0010471975511965976,0.0019198621771937623,0.0,0.0,0.0,0.0,0.0,0.0,0.0,0.0,0.0,0.0784532,0.04511059,9.89687118,0.0,0.0,0.0,0.0,0.0,0.0,0.0,0.0,0.0
1704779922026916644,2982,1704779922026415066,imu_link,0.0012506790095957842,0.001812958850474489,-0.015884046323119027,0.9998714147602314,0.0,0.0,0.0,0.0,0.0,0.0,0.0,0.0,0.0,-0.007504915783575617,0.0031415926535897933,0.002617993877991494,0.0,0.0,0.0,0.0,0.0,0.0,0.0,0.0,0.0,0.114737805,0.14317708999999998,9.77526872,0.0,0.0,0.0,0.0,0.0,0.0,0.0,0.0,0.0
1704779922127524731,2983,1704779922127064394,imu_link,0.0008127144779001334,0.0017327759959713746,-0.01570868740188834,0.9998747792211958,0.0,0.0,0.0,0.0,0.0,0.0,0.0,0.0,0.0,-0.006632251157578452,-0.012042771838760872,0.005759586531581288,0.0,0.0,0.0,0.0,0.0,0.0,0.0,0.0,0.0,0.183384355,-0.07158854499999999,9.941001105,0.0,0.0,0.0,0.0,0.0,0.0,0.0,0.0,0.0
1704779922227513701,2984,1704779922227099021,imu_link,0.001061898541589974,0.0009436414185562961,-0.01544652365667501,0.9998796861719336,0.0,0.0,0.0,0.0,0.0,0.0,0.0,0.0,0.0,0.011868238913561443,-0.008028514559173916,0.0024434609527920616,0.0,0.0,0.0,0.0,0.0,0.0,0.0,0.0,0.0,0.36676871,-0.0980665,9.637975619999999,0.0,0.0,0.0,0.0,0.0,0.0,0.0,0.0,0.0
1704779922327680050,2985,1704779922327286230,imu_link,0.0016672479980223648,0.0005853273370455449,-0.015359272031546276,0.9998804780765961,0.0,0.0,0.0,0.0,0.0,0.0,0.0,0.0,0.0,-0.005934119456780722,-0.0143116998663535,0.00034906585039886593,0.0,0.0,0.0,0.0,0.0,0.0,0.0,0.0,0.0,0.40991796999999996,0.301064155,10.041028935,0.0,0.0,0.0,0.0,0.0,0.0,0.0,0.0,0.0
1704779922427894435,2986,1704779922427438529,imu_link,0.0009584863800823561,-0.00010191538088120158,-0.015270941455094767,0.9998829277791422,0.0,0.0,0.0,0.0,0.0,0.0,0.0,0.0,0.0,-0.024783675378319478,-0.008028514559173916,0.005235987755982988,0.0,0.0,0.0,0.0,0.0,0.0,0.0,0.0,0.0,0.40403397999999996,0.055897905,9.919426475,0.0,0.0,0.0,0.0,0.0,0.0,0.0,0.0,0.0
1704779922527973419,2987,1704779922527535862,imu_link,0.00016523752376933855,-0.0006134448462993344,-0.015183671558572658,0.999884519582128,0.0,0.0,0.0,0.0,0.0,0.0,0.0,0.0,0.0,-0.009773843811168246,-0.0027925268031909274,-0.0036651914291880917,0.0,0.0,0.0,0.0,0.0,0.0,0.0,0.0,0.0,0.599186315,-0.15396440499999997,9.911581154999999,0.0,0.0,0.0,0.0,0.0,0.0,0.0,0.0,0.0
1704779922626925429,2988,1704779922626443898,imu_link,0.00017984315286738163,0.0003463598275482861,-0.015271092062553037,0.9998833139114419,0.0,0.0,0.0,0.0,0.0,0.0,0.0,0.0,0.0,0.002967059728390361,0.024434609527920613,0.0013962634015954637,0.0,0.0,0.0,0.0,0.0,0.0,0.0,0.0,0.0,0.373633365,0.010787315,9.81841798,0.0,0.0,0.0,0.0,0.0,0.0,0.0,0.0,0.0
1704779922727374800,2989,1704779922726934780,imu_link,0.00017981292840854387,0.000346375519558907,-0.015183840986739703,0.9998846426784439,0.0,0.0,0.0,0.0,0.0,0.0,0.0,0.0,0.0,-0.00645771823237902,-0.015184364492350668,0.0022689280275926286,0.0,0.0,0.0,0.0,0.0,0.0,0.0,0.0,0.0,0.25497289999999995,0.06374322499999999,9.79488202,0.0,0.0,0.0,0.0,0.0,0.0,0.0,0.0,0.0
1704779922827526491,2990,1704779922827177533,imu_link,-0.0003543557046154063,-0.00034369451398288015,-0.015271152281153107,0.9998832672937984,0.0,0.0,0.0,0.0,0.0,0.0,0.0,0.0,0.0,-0.015184364492350668,-0.01117010721276371,-0.003316125578789226,0.0,0.0,0.0,0.0,0.0,0.0,0.0,0.0,0.0,0.152003075,0.04903325,9.713486825,0.0,0.0,0.0,0.0,0.0,0.0,0.0,0.0,0.0
1704779922927222601,2991,1704779922926750557,imu_link,-0.0004494566103151769,-0.0008659778762513799,-0.015096903571339934,0.9998855592384714,0.0,0.0,0.0,0.0,0.0,0.0,0.0,0.0,0.0,0.009250245035569947,-0.0020943951023931952,0.005759586531581288,0.0,0.0,0.0,0.0,0.0,0.0,0.0,0.0,0.0,0.067665885,-0.17259704,9.846857264999999,0.0,0.0,0.0,0.0,0.0,0.0,0.0,0.0,0.0
1704779923026496638,2992,1704779923026084980,imu_link,-0.00026835661517877487,-0.00043233029509363044,-0.015096642292508544,0.9998859097250721,0.0,0.0,0.0,0.0,0.0,0.0,0.0,0.0,0.0,-0.0005235987755982988,0.01291543646475804,-0.004014257279586958,0.0,0.0,0.0,0.0,0.0,0.0,0.0,0.0,0.0,-0.01569064,0.16082906,9.9047165,0.0,0.0,0.0,0.0,0.0,0.0,0.0,0.0,0.0
1704779923127427631,2993,1704779923126792328,imu_link,-0.0004323068763274117,0.0002683943398173491,-0.015183665042513866,0.9998845920360608,0.0,0.0,0.0,0.0,0.0,0.0,0.0,0.0,0.0,-0.010297442586766544,0.008552113334772213,0.002617993877991494,0.0,0.0,0.0,0.0,0.0,0.0,0.0,0.0,0.0,-0.097085835,-0.132389775,9.561483749999999,0.0,0.0,0.0,0.0,0.0,0.0,0.0,0.0,0.0
1704779923227245982,2994,1704779923226838507,imu_link,-0.0004231849151637889,0.0008791151541696206,-0.015008890842627498,0.9998868842357855,0.0,0.0,0.0,0.0,0.0,0.0,0.0,0.0,0.0,0.005235987755982988,0.017627825445142728,0.0005235987755982988,0.0,0.0,0.0,0.0,0.0,0.0,0.0,0.0,0.0,-0.0980665,-0.010787315,10.148902085,0.0,0.0,0.0,0.0,0.0,0.0,0.0,0.0,0.0
1704779923327493857,2995,1704779923327028586,imu_link,-0.00022530808714464536,0.0024470929771409577,-0.014921342605904863,0.9998856507156527,0.0,0.0,0.0,0.0,0.0,0.0,0.0,0.0,0.0,-0.005759586531581288,0.041189770347066175,0.0022689280275926286,0.0,0.0,0.0,0.0,0.0,0.0,0.0,0.0,0.0,-0.08629852,0.212804305,9.689950864999998,0.0,0.0,0.0,0.0,0.0,0.0,0.0,0.0,0.0
1704779923427986511,2996,1704779923427482973,imu_link,-0.0006491473259977957,0.003326053740144483,-0.014745124576024747,0.9998855420874453,0.0,0.0,0.0,0.0,0.0,0.0,0.0,0.0,0.0,-0.012042771838760872,-0.0031415926535897933,0.0013962634015954637,0.0,0.0,0.0,0.0,0.0,0.0,0.0,0.0,0.0,-0.191229675,-0.14121576,9.823321305,0.0,0.0,0.0,0.0,0.0,0.0,0.0,0.0,0.0
1704779923527331821,2997,1704779923526983637,imu_link,-0.0003822295422769678,0.003671218986022989,-0.0147458245689575,0.999884461680206,0.0,0.0,0.0,0.0,0.0,0.0,0.0,0.0,0.0,0.004014257279586958,0.021118483949131385,0.0020943951023931952,0.0,0.0,0.0,0.0,0.0,0.0,0.0,0.0,0.0,-0.07354987499999999,-0.09316317499999999,9.83018596,0.0,0.0,0.0,0.0,0.0,0.0,0.0,0.0,0.0
1704779923627253659,2998,1704779923626793869,imu_link,-0.00019524283449898487,0.004541190805023298,-0.01465887340755999,0.9998822215124785,0.0,0.0,0.0,0.0,0.0,0.0,0.0,0.0,0.0,-0.003316125578789226,0.010471975511965976,0.0010471975511965976,0.0,0.0,0.0,0.0,0.0,0.0,0.0,0.0,0.0,-0.13533177,0.19809432999999999,9.74388744,0.0,0.0,0.0,0.0,0.0,0.0,0.0,0.0,0.0
1704779923727033710,2999,1704779923726656463,imu_link,-0.000634846119613,0.004372963209798389,-0.014482521593358775,0.9998853587944309,0.0,0.0,0.0,0.0,0.0,0.0,0.0,0.0,0.0,-0.00890117918517108,-0.012391837689159739,0.00471238898038469,0.0,0.0,0.0,0.0,0.0,0.0,0.0,0.0,0.0,-0.26477955,-0.07453053999999999,9.987092359999998,0.0,0.0,0.0,0.0,0.0,0.0,0.0,0.0,0.0
1704779923827292417,3000,1704779923826892179,imu_link,-0.0006493495527649672,0.0034130272592630237,-0.014308742414203397,0.9998915888638176,0.0,0.0,0.0,0.0,0.0,0.0,0.0,0.0,0.0,0.011868238913561443,-0.01832595714594046,0.003316125578789226,0.0,0.0,0.0,0.0,0.0,0.0,0.0,0.0,0.0,-0.0058839899999999995,-0.20986230999999997,9.795862685,0.0,0.0,0.0,0.0,0.0,0.0,0.0,0.0,0.0
1704779923927015458,3001,1704779923926589074,imu_link,-5.394871543381197e-05,0.002357190442711095,-0.01413645491847287,0.9998972954184298,0.0,0.0,0.0,0.0,0.0,0.0,0.0,0.0,0.0,0.015184364492350668,-0.02809980095710871,0.0020943951023931952,0.0,0.0,0.0,0.0,0.0,0.0,0.0,0.0,0.0,0.22653361499999997,0.15886772999999998,9.762520075,0.0,0.0,0.0,0.0,0.0,0.0,0.0,0.0,0.0
1704779924026525142,3002,1704779924026037295,imu_link,-0.00015230939685246977,0.001573106041076441,-0.014136408025380886,0.999898826935691,0.0,0.0,0.0,0.0,0.0,0.0,0.0,0.0,0.0,-0.0019198621771937623,-0.019198621771937627,0.003490658503988659,0.0,0.0,0.0,0.0,0.0,0.0,0.0,0.0,0.0,0.3138128,0.02941995,9.988073024999998,0.0,0.0,0.0,0.0,0.0,0.0,0.0,0.0,0.0
1704779924126805208,3003,1704779924126332999,imu_link,-0.0005235470460018529,7.356272671058697e-06,-0.01404944534963221,0.9999011645806518,0.0,0.0,0.0,0.0,0.0,0.0,0.0,0.0,0.0,0.0036651914291880917,-0.035430183815484885,0.00034906585039886593,0.0,0.0,0.0,0.0,0.0,0.0,0.0,0.0,0.0,0.530539765,-0.07354987499999999,9.393790034999999,0.0,0.0,0.0,0.0,0.0,0.0,0.0,0.0,0.0
1704779924227121373,3004,1704779924226525443,imu_link,-0.0010630318553812852,-0.0011196386826829183,-0.014050618421343818,0.9999000932565576,0.0,0.0,0.0,0.0,0.0,0.0,0.0,0.0,0.0,-0.0031415926535897933,-0.01117010721276371,0.004014257279586958,0.0,0.0,0.0,0.0,0.0,0.0,0.0,0.0,0.0,0.5246557749999999,0.01765197,10.071429549999998,0.0,0.0,0.0,0.0,0.0,0.0,0.0,0.0,0.0
1704779924326991155,3005,1704779924326665279,imu_link,-0.0009790900170775095,-0.001382894332426012,-0.013789009431095187,0.9999034914455059,0.0,0.0,0.0,0.0,0.0,0.0,0.0,0.0,0.0,0.011519173063162576,-0.018500490071139894,0.0008726646259971648,0.0,0.0,0.0,0.0,0.0,0.0,0.0,0.0,0.0,0.43149259999999995,-0.220649625,9.61443966,0.0,0.0,0.0,0.0,0.0,0.0,0.0,0.0,0.0
1704779924427386383,3006,1704779924426910683,imu_link,-0.0009012746591377319,-0.0020822402899879737,-0.01370216874436491,0.9999035466239053,0.0,0.0,0.0,0.0,0.0,0.0,0.0,0.0,0.0,-0.004363323129985824,0.006108652381980153,0.0006981317007977319,0.0,0.0,0.0,0.0,0.0,0.0,0.0,0.0,0.0,0.48150651499999997,0.26870221,10.082216865,0.0,0.0,0.0,0.0,0.0,0.0,0.0,0.0,0.0
1704779924527087928,3007,1704779924526638816,imu_link,-0.0014152598161904443,-0.0013770011983208538,-0.013702299135620554,0.9999041693611197,0.0,0.0,0.0,0.0,0.0,0.0,0.0,0.0,0.0,-0.003316125578789226,0.009948376736367677,0.0006981317007977319,0.0,0.0,0.0,0.0,0.0,0.0,0.0,0.0,0.0,0.29125750499999997,-0.32754211,9.82822463,0.0,0.0,0.0,0.0,0.0,0.0,0.0,0.0,0.0
1704779924626939086,3008,1704779924626550744,imu_link,-0.0006250638911827897,-0.0010387842945654556,-0.013613753048884956,0.9999065936127461,0.0,0.0,0.0,0.0,0.0,0.0,0.0,0.0,0.0,0.033859387488689996,0.01658062789394613,0.0012217304763960308,0.0,0.0,0.0,0.0,0.0,0.0,0.0,0.0,0.0,0.246146915,-0.10591182,9.81645665,0.0,0.0,0.0,0.0,0.0,0.0,0.0,0.0,0.0
1704779924726650121,3009,1704779924726311782,imu_link,0.0005163296666463423,-0.0005307680974474813,-0.013787411125301012,0.9999046749482493,0.0,0.0,0.0,0.0,0.0,0.0,0.0,0.0,0.0,0.007330382858376183,-0.006108652381980153,-0.005934119456780722,0.0,0.0,0.0,0.0,0.0,0.0,0.0,0.0,0.0,-0.083356525,0.31773545999999997,10.20479999,0.0,0.0,0.0,0.0,0.0,0.0,0.0,0.0,0.0
1704779924826459833,3010,1704779924826022419,imu_link,0.00033934561291390296,-0.0007029076482069738,-0.01387469399060837,0.9999034371538383,0.0,0.0,0.0,0.0,0.0,0.0,0.0,0.0,0.0,-0.014835298641951801,0.014835298641951801,0.0010471975511965976,0.0,0.0,0.0,0.0,0.0,0.0,0.0,0.0,0.0,0.157887065,-0.055897905,9.549715769999999,0.0,0.0,0.0,0.0,0.0,0.0,0.0,0.0,0.0
1704779924927145901,3011,1704779924926786321,imu_link,8.725784730167603e-05,-1.2260455337159147e-06,-0.014049447222003507,0.9999012978376021,0.0,0.0,0.0,0.0,0.0,0.0,0.0,0.0,0.0,0.0005235987755982988,-0.012217304763960306,-0.0031415926535897933,0.0,0.0,0.0,0.0,0.0,0.0,0.0,0.0,0.0,-0.144157755,-0.122583125,10.030241619999998,0.0,0.0,0.0,0.0,0.0,0.0,0.0,0.0,0.0
1704779925026983881,3012,1704779925026386295,imu_link,-0.00018228115983112095,-0.0005209519424807798,-0.014834864862604233,0.9998898050121128,0.0,0.0,0.0,0.0,0.0,0.0,0.0,0.0,0.0,0.0022689280275926286,0.00942477796076938,-0.033859387488689996,0.0,0.0,0.0,0.0,0.0,0.0,0.0,0.0,0.0,-0.034323275,-0.30989014000000004,9.81645665,0.0,0.0,0.0,0.0,0.0,0.0,0.0,0.0,0.0
1704779925126312850,3013,1704779925125885030,imu_link,-1.0927576192028786e-05,-0.0006107674593031874,-0.01788868317573567,0.9998397980966435,0.0,0.0,0.0,0.0,0.0,0.0,0.0,0.0,0.0,0.009250245035569947,-0.019896753472735354,-0.07714355293814937,0.0,0.0,0.0,0.0,0.0,0.0,0.0,0.0,0.0,-0.02745862,-0.25105024,9.67524089,0.0,0.0,0.0,0.0,0.0,0.0,0.0,0.0,0.0
1704779925226650479,3014,1704779925226251126,imu_link,0.0003246329166210775,-0.0011416953380866681,-0.02146546884450523,0.9997688856893426,0.0,0.0,0.0,0.0,0.0,0.0,0.0,0.0,0.0,-0.0013962634015954637,-0.00471238898038469,-0.0635299847725936,0.0,0.0,0.0,0.0,0.0,0.0,0.0,0.0,0.0,-0.10493115499999998,-0.037265269999999996,10.082216865,0.0,0.0,0.0,0.0,0.0,0.0,0.0,0.0,0.0
1704779925326858247,3015,1704779925326363099,imu_link,0.0004803392653121645,-0.0017577255763315798,-0.0246929666167702,0.9996934215421505,0.0,0.0,0.0,0.0,0.0,0.0,0.0,0.0,0.0,0.012217304763960306,-0.0008726646259971648,-0.06963863715457375,0.0,0.0,0.0,0.0,0.0,0.0,0.0,0.0,0.0,-0.030400614999999995,-0.14513842,9.699757515,0.0,0.0,0.0,0.0,0.0,0.0,0.0,0.0,0.0
1704779925427110622,3016,1704779925426653900,imu_link,0.0009252254604711009,-0.001248217612902001,-0.02809489316231427,0.9996040530574275,0.0,0.0,0.0,0.0,0.0,0.0,0.0,0.0,0.0,0.0012217304763960308,-0.0006981317007977319,-0.06161012259539983,0.0,0.0,0.0,0.0,0.0,0.0,0.0,0.0,0.0,-0.051975244999999996,0.083356525,9.686028205,0.0,0.0,0.0,0.0,0.0,0.0,0.0,0.0,0.0
1704779925527191960,3017,1704779925526832455,imu_link,0.0007246213099496424,-0.0020298594172497545,-0.030100730298254035,0.9995445465962061,0.0,0.0,0.0,0.0,0.0,0.0,0.0,0.0,0.0,-0.015707963267948967,-0.010122909661567111,-0.016929693744344998,0.0,0.0,0.0,0.0,0.0,0.0,0.0,0.0,0.0,0.038245934999999995,0.287334845,9.95767241,0.0,0.0,0.0,0.0,0.0,0.0,0.0,0.0,0.0
1704779925626239191,3018,1704779925625855261,imu_link,0.00021398263222597913,-0.00157802065404434,-0.030363590282953882,0.9995376513405472,0.0,0.0,0.0,0.0,0.0,0.0,0.0,0.0,0.0,-0.0005235987755982988,0.021642082724729686,-0.008203047484373348,0.0,0.0,0.0,0.0,0.0,0.0,0.0,0.0,0.0,-0.31577413,-0.257914895,9.640917615,0.0,0.0,0.0,0.0,0.0,0.0,0.0,0.0,0.0
1704779925726468345,3019,1704779925726103461,imu_link,0.0008369029975651884,-0.0011610955554897553,-0.031148057206535705,0.9995137567751342,0.0,0.0,0.0,0.0,0.0,0.0,0.0,0.0,0.0,0.005759586531581288,0.0010471975511965976,-0.01937315469713706,0.0,0.0,0.0,0.0,0.0,0.0,0.0,0.0,0.0,-0.56486304,0.097085835,9.821359975,0.0,0.0,0.0,0.0,0.0,0.0,0.0,0.0,0.0
1704779925826909841,3020,1704779925826386350,imu_link,0.0013248812395005667,0.0004819920818013957,-0.031585883173198305,0.9995000472023517,0.0,0.0,0.0,0.0,0.0,0.0,0.0,0.0,0.0,-0.0008726646259971648,0.020420352248333655,0.002617993877991494,0.0,0.0,0.0,0.0,0.0,0.0,0.0,0.0,0.0,-1.515127425,0.030400614999999995,9.856663915,0.0,0.0,0.0,0.0,0.0,0.0,0.0,0.0,0.0
1704779925926778102,3021,1704779925926350048,imu_link,0.0011908875245531746,-0.0009979360028209941,-0.031496801519625306,0.9995026450213484,0.0,0.0,0.0,0.0,0.0,0.0,0.0,0.0,0.0,-0.0012217304763960308,-0.021467549799530253,-0.004363323129985824,0.0,0.0,0.0,0.0,0.0,0.0,0.0,0.0,0.0,-0.51386846,-0.024516625,9.558541755,0.0,0.0,0.0,0.0,0.0,0.0,0.0,0.0,0.0
1704779926026198473,3022,1704779926025621980,imu_link,0.0016460692014177033,-0.0004018360363131493,-0.03193347391378432,0.9994885603286221,0.0,0.0,0.0,0.0,0.0,0.0,0.0,0.0,0.0,0.005934119456780722,0.01308996938995747,-0.007504915783575617,0.0,0.0,0.0,0.0,0.0,0.0,0.0,0.0,0.0,-0.392266,0.02549729,9.599729685,0.0,0.0,0.0,0.0,0.0,0.0,0.0,0.0,0.0
1704779926126113891,3023,1704779926125777409,imu_link,0.0016376507736255241,-0.0006636444244067265,-0.03202025248258423,0.9994856582797841,0.0,0.0,0.0,0.0,0.0,0.0,0.0,0.0,0.0,-0.009948376736367677,-0.01308996938995747,0.0013962634015954637,0.0,0.0,0.0,0.0,0.0,0.0,0.0,0.0,0.0,-0.00784532,0.181423025,10.109675484999999,0.0,0.0,0.0,0.0,0.0,0.0,0.0,0.0,0.0
1704779926225973365,3024,1704779926225536637,imu_link,0.001294269791574902,-0.00047824983805607536,-0.03219514571052945,0.99948064950527,0.0,0.0,0.0,0.0,0.0,0.0,0.0,0.0,0.0,-0.0041887902047863905,0.011868238913561443,-0.007679448708775049,0.0,0.0,0.0,0.0,0.0,0.0,0.0,0.0,0.0,0.273605535,-0.14611908499999998,9.638956284999999,0.0,0.0,0.0,0.0,0.0,0.0,0.0,0.0,0.0
1704779926326594651,3025,1704779926326145881,imu_link,0.0012941027535845575,-0.0004787016441885996,-0.032544066838472586,0.9994693491330348,0.0,0.0,0.0,0.0,0.0,0.0,0.0,0.0,0.0,0.003316125578789226,-0.0020943951023931952,-0.004886921905584123,0.0,0.0,0.0,0.0,0.0,0.0,0.0,0.0,0.0,0.277528195,0.04511059,9.890987189999999,0.0,0.0,0.0,0.0,0.0,0.0,0.0,0.0,0.0
1704779926426678273,3026,1704779926426254819,imu_link,0.0013926600540549235,-0.00013290411485613224,-0.032718944329299074,0.9994636129026641,0.0,0.0,0.0,0.0,0.0,0.0,0.0,0.0,0.0,-0.006108652381980153,0.004363323129985824,-0.005759586531581288,0.0,0.0,0.0,0.0,0.0,0.0,0.0,0.0,0.0,0.21770762999999999,0.11375713999999998,9.746829434999999,0.0,0.0,0.0,0.0,0.0,0.0,0.0,0.0,0.0
1704779926526615277,3027,1704779926526111594,imu_link,0.0009478630417327659,-0.00038061772314278673,-0.03306760189982086,0.999452595369284,0.0,0.0,0.0,0.0,0.0,0.0,0.0,0.0,0.0,-0.014660765716752367,-0.005759586531581288,-0.006806784082777885,0.0,0.0,0.0,0.0,0.0,0.0,0.0,0.0,0.0,0.33244543499999996,0.03530394,9.65170493,0.0,0.0,0.0,0.0,0.0,0.0,0.0,0.0,0.0
1704779926626577132,3028,1704779926626047303,imu_link,0.0006919266349552764,-0.00019770435250252095,-0.033329462932511544,0.9994441600465486,0.0,0.0,0.0,0.0,0.0,0.0,0.0,0.0,0.0,0.00471238898038469,0.014486232791552934,-0.004014257279586958,0.0,0.0,0.0,0.0,0.0,0.0,0.0,0.0,0.0,0.43149259999999995,-0.07943386499999999,10.062603565,0.0,0.0,0.0,0.0,0.0,0.0,0.0,0.0,0.0
1704779926726251827,3029,1704779926725843930,imu_link,0.0010758467935074792,0.0008370887329641364,-0.033504960052982584,0.9994376216092619,0.0,0.0,0.0,0.0,0.0,0.0,0.0,0.0,0.0,0.0158824961931484,0.013439035240356337,-0.0008726646259971648,0.0,0.0,0.0,0.0,0.0,0.0,0.0,0.0,0.0,0.41089863499999996,-0.026477955,9.676221555,0.0,0.0,0.0,0.0,0.0,0.0,0.0,0.0,0.0
1704779926826378757,3030,1704779926825976439,imu_link,0.0012532854398151698,0.000918349044868032,-0.033592421492897914,0.999434407617069,0.0,0.0,0.0,0.0,0.0,0.0,0.0,0.0,0.0,-0.008028514559173916,-0.006806784082777885,-0.005585053606381855,0.0,0.0,0.0,0.0,0.0,0.0,0.0,0.0,0.0,0.40305331499999997,0.22163028999999998,10.014550980000001,0.0,0.0,0.0,0.0,0.0,0.0,0.0,0.0,0.0
1704779926926160516,3031,1704779926925687589,imu_link,0.0007361359352267202,0.0011101795040348473,-0.0338536861503619,0.9994259119811667,0.0,0.0,0.0,0.0,0.0,0.0,0.0,0.0,0.0,0.0017453292519943296,0.014486232791552934,-0.0036651914291880917,0.0,0.0,0.0,0.0,0.0,0.0,0.0,0.0,0.0,0.43639592499999996,-0.22359162,9.941001105,0.0,0.0,0.0,0.0,0.0,0.0,0.0,0.0,0.0
1704779927025941288,3032,1704779927025581749,imu_link,0.0013676253671029528,0.001699774530608597,-0.034029548811938135,0.9994184459849921,0.0,0.0,0.0,0.0,0.0,0.0,0.0,0.0,0.0,0.030368728984701335,0.005934119456780722,-0.002967059728390361,0.0,0.0,0.0,0.0,0.0,0.0,0.0,0.0,0.0,0.38442067999999996,-0.048052584999999995,9.74192611,0.0,0.0,0.0,0.0,0.0,0.0,0.0,0.0,0.0
1704779927125832530,3033,1704779927125348455,imu_link,0.0021771459557595936,0.002370011975096227,-0.03438112359630362,0.9994036128706865,0.0,0.0,0.0,0.0,0.0,0.0,0.0,0.0,0.0,0.006632251157578452,0.015533430342749534,-0.009250245035569947,0.0,0.0,0.0,0.0,0.0,0.0,0.0,0.0,0.0,0.261837555,0.25693423,9.989053689999999,0.0,0.0,0.0,0.0,0.0,0.0,0.0,0.0,0.0
1704779927225970199,3034,1704779927225582090,imu_link,0.001738876326148374,0.0022971918124059243,-0.034728843276960276,0.999392618875857,0.0,0.0,0.0,0.0,0.0,0.0,0.0,0.0,0.0,-0.01117010721276371,-0.007504915783575617,-0.004014257279586958,0.0,0.0,0.0,0.0,0.0,0.0,0.0,0.0,0.0,0.10395048999999999,-0.09316317499999999,9.539909119999999,0.0,0.0,0.0,0.0,0.0,0.0,0.0,0.0,0.0
1704779927325836545,3035,1704779927325393285,imu_link,0.0019167481541966474,0.002378009513754997,-0.034903812013937247,0.9993860090346282,0.0,0.0,0.0,0.0,0.0,0.0,0.0,0.0,0.0,0.017453292519943295,-0.0022689280275926286,-0.00471238898038469,0.0,0.0,0.0,0.0,0.0,0.0,0.0,0.0,0.0,-0.033342609999999995,-0.13140911,9.97140172,0.0,0.0,0.0,0.0,0.0,0.0,0.0,0.0,0.0
1704779927426582419,3036,1704779927426012511,imu_link,0.0026685315459974287,0.0013905554540203549,-0.03516484486611509,0.9993769954228782,0.0,0.0,0.0,0.0,0.0,0.0,0.0,0.0,0.0,0.011693705988362009,-0.017627825445142728,-0.006632251157578452,0.0,0.0,0.0,0.0,0.0,0.0,0.0,0.0,0.0,0.026477955,0.177500365,9.672298894999999,0.0,0.0,0.0,0.0,0.0,0.0,0.0,0.0,0.0
1704779927526153434,3037,1704779927525688580,imu_link,0.0027594549834501357,0.0014734949291167621,-0.035601287547287426,0.9993611772256631,0.0,0.0,0.0,0.0,0.0,0.0,0.0,0.0,0.0,0.0,0.0015707963267948967,-0.010821041362364843,0.0,0.0,0.0,0.0,0.0,0.0,0.0,0.0,0.0,-0.20986230999999997,0.11571846999999999,9.969440389999999,0.0,0.0,0.0,0.0,0.0,0.0,0.0,0.0,0.0
1704779927626034799,3038,1704779927625669247,imu_link,0.0023798174165037887,0.0006127750955528387,-0.03603477614423226,0.9993475150737012,0.0,0.0,0.0,0.0,0.0,0.0,0.0,0.0,0.0,-0.004886921905584123,-0.013264502315156903,-0.005235987755982988,0.0,0.0,0.0,0.0,0.0,0.0,0.0,0.0,0.0,-0.014709975,-0.034323275,9.68308621,0.0,0.0,0.0,0.0,0.0,0.0,0.0,0.0,0.0
1704779927725943383,3039,1704779927725512766,imu_link,0.002367308923182363,0.0002633172286286145,-0.03629557240589894,0.9993382600182119,0.0,0.0,0.0,0.0,0.0,0.0,0.0,0.0,0.0,0.005585053606381855,-0.012740903539558606,-0.00645771823237902,0.0,0.0,0.0,0.0,0.0,0.0,0.0,0.0,0.0,-0.18044236,0.024516625,9.92825246,0.0,0.0,0.0,0.0,0.0,0.0,0.0,0.0,0.0
1704779927826929125,3040,1704779927826495509,imu_link,0.002619431105284292,-8.49681120218982e-06,-0.03655662576996206,0.9993281501192707,0.0,0.0,0.0,0.0,0.0,0.0,0.0,0.0,0.0,0.0036651914291880917,0.007679448708775049,-0.006806784082777885,0.0,0.0,0.0,0.0,0.0,0.0,0.0,0.0,0.0,-0.08041453,0.0588399,9.707602835,0.0,0.0,0.0,0.0,0.0,0.0,0.0,0.0,0.0
1704779927926293866,3041,1704779927925905974,imu_link,0.002628979299731185,0.0002533560908484719,-0.036470105906834416,0.9993312542163769,0.0,0.0,0.0,0.0,0.0,0.0,0.0,0.0,0.0,-0.01361356816555577,-0.004014257279586958,0.0143116998663535,0.0,0.0,0.0,0.0,0.0,0.0,0.0,0.0,0.0,-0.051975244999999996,0.35009740500000003,9.888045194999998,0.0,0.0,0.0,0.0,0.0,0.0,0.0,0.0,0.0
1704779928025402186,3042,1704779928024966885,imu_link,0.0021894835582533727,0.00018530937764873036,-0.0349871939157004,0.9993853451417466,0.0,0.0,0.0,0.0,0.0,0.0,0.0,0.0,0.0,0.0006981317007977319,0.010471975511965976,0.03961897402027128,0.0,0.0,0.0,0.0,0.0,0.0,0.0,0.0,0.0,-0.10002783,-0.06374322499999999,10.00474433,0.0,0.0,0.0,0.0,0.0,0.0,0.0,0.0,0.0
1704779928125553614,3043,1704779928125143823,imu_link,0.0029798903446282676,0.00033771728341588675,-0.03315631221154307,0.9994456789446344,0.0,0.0,0.0,0.0,0.0,0.0,0.0,0.0,0.0,0.02199114857512855,-0.006632251157578452,0.03089232776029963,0.0,0.0,0.0,0.0,0.0,0.0,0.0,0.0,0.0,-0.13925443,0.12650578499999998,9.72427414,0.0,0.0,0.0,0.0,0.0,0.0,0.0,0.0,0.0
1704779928225801326,3044,1704779928225353512,imu_link,0.0034126914827926004,0.0002416907402235924,-0.03149901480931568,0.9994979275558664,0.0,0.0,0.0,0.0,0.0,0.0,0.0,0.0,0.0,-0.005585053606381855,0.010995574287564275,0.03804817769347638,0.0,0.0,0.0,0.0,0.0,0.0,0.0,0.0,0.0,0.10395048999999999,0.37069136999999996,9.686028205,0.0,0.0,0.0,0.0,0.0,0.0,0.0,0.0,0.0
1704779928325944393,3045,1704779928325481512,imu_link,0.002978632527497991,0.0003486369109223916,-0.029492920592483686,0.9995604903333744,0.0,0.0,0.0,0.0,0.0,0.0,0.0,0.0,0.0,-0.01117010721276371,-0.010995574287564275,0.04293509959906051,0.0,0.0,0.0,0.0,0.0,0.0,0.0,0.0,0.0,0.000980665,-0.04511059,10.054758245,0.0,0.0,0.0,0.0,0.0,0.0,0.0,0.0,0.0
1704779928426177457,3046,1704779928425664238,imu_link,0.003239807477578577,0.00034572230226430063,-0.02801013216136188,0.9996023292389333,0.0,0.0,0.0,0.0,0.0,0.0,0.0,0.0,0.0,0.019896753472735354,0.009250245035569947,0.01361356816555577,0.0,0.0,0.0,0.0,0.0,0.0,0.0,0.0,0.0,-0.07943386499999999,-0.13140911,9.66739557,0.0,0.0,0.0,0.0,0.0,0.0,0.0,0.0,0.0
1704779928526338534,3047,1704779928525881912,imu_link,0.0039303001406038,6.618761437858358e-05,-0.02757320715698728,0.9996120580540645,0.0,0.0,0.0,0.0,0.0,0.0,0.0,0.0,0.0,0.008726646259971648,-0.012740903539558606,0.009075712110370514,0.0,0.0,0.0,0.0,0.0,0.0,0.0,0.0,0.0,0.038245934999999995,0.29125750499999997,9.821359975,0.0,0.0,0.0,0.0,0.0,0.0,0.0,0.0,0.0
1704779928625064923,3048,1704779928624597987,imu_link,0.003578969528155974,-9.233897114292356e-06,-0.026962213639527735,0.9996300465309694,0.0,0.0,0.0,0.0,0.0,0.0,0.0,0.0,0.0,-0.01972222054753592,0.0022689280275926286,0.00942477796076938,0.0,0.0,0.0,0.0,0.0,0.0,0.0,0.0,0.0,0.048052584999999995,0.16475172,9.87137389,0.0,0.0,0.0,0.0,0.0,0.0,0.0,0.0,0.0
1704779928725596127,3049,1704779928725153307,imu_link,0.002874080544783536,-0.0002516122506758134,-0.026787000914965466,0.9996370005828511,0.0,0.0,0.0,0.0,0.0,0.0,0.0,0.0,0.0,-0.005934119456780722,0.002617993877991494,0.0031415926535897933,0.0,0.0,0.0,0.0,0.0,0.0,0.0,0.0,0.0,0.065704555,-0.14317708999999998,9.558541755,0.0,0.0,0.0,0.0,0.0,0.0,0.0,0.0,0.0
1704779928825559751,3050,1704779928825275862,imu_link,0.0032346615968339566,0.00017605776054526102,-0.026526570513840303,0.9996428597378131,0.0,0.0,0.0,0.0,0.0,0.0,0.0,0.0,0.0,0.016057029118347832,0.004886921905584123,0.007330382858376183,0.0,0.0,0.0,0.0,0.0,0.0,0.0,0.0,0.0,-0.04314926,0.07060788,9.917465145,0.0,0.0,0.0,0.0,0.0,0.0,0.0,0.0,0.0
1704779928925751408,3051,1704779928925347309,imu_link,0.0037671977035198504,0.0005120952306483357,-0.02626627392787223,0.9996477523777478,0.0,0.0,0.0,0.0,0.0,0.0,0.0,0.0,0.0,-0.0041887902047863905,0.008726646259971648,0.0006981317007977319,0.0,0.0,0.0,0.0,0.0,0.0,0.0,0.0,0.0,0.03530394,0.24908890999999997,9.695834855,0.0,0.0,0.0,0.0,0.0,0.0,0.0,0.0,0.0
1704779929025064756,3052,1704779929024708517,imu_link,0.003503123167125472,0.00043234723651867235,-0.026091374249695865,0.9996533306070188,0.0,0.0,0.0,0.0,0.0,0.0,0.0,0.0,0.0,-0.020943951023931952,-0.005061454830783556,0.007853981633974483,0.0,0.0,0.0,0.0,0.0,0.0,0.0,0.0,0.0,0.048052584999999995,0.27164420499999997,9.597768355,0.0,0.0,0.0,0.0,0.0,0.0,0.0,0.0,0.0
1704779929125313951,3053,1704779929124853104,imu_link,0.0028163057976780793,0.0008877274593098084,-0.025743349641544955,0.9996642237825885,0.0,0.0,0.0,0.0,0.0,0.0,0.0,0.0,0.0,-0.0013962634015954637,0.012740903539558606,0.0020943951023931952,0.0,0.0,0.0,0.0,0.0,0.0,0.0,0.0,0.0,-0.15984839499999998,-0.173577705,10.089081519999999,0.0,0.0,0.0,0.0,0.0,0.0,0.0,0.0,0.0
1704779929225065336,3054,1704779929224641967,imu_link,0.0035187854345158083,0.0010439219072203964,-0.025831799036968264,0.9996595653194298,0.0,0.0,0.0,0.0,0.0,0.0,0.0,0.0,0.0,0.018500490071139894,-0.0,-0.0010471975511965976,0.0,0.0,0.0,0.0,0.0,0.0,0.0,0.0,0.0,-0.004903325,0.140235095,9.566387075,0.0,0.0,0.0,0.0,0.0,0.0,0.0,0.0,0.0
1704779929325469573,3055,1704779929325100550,imu_link,0.003959370697734593,0.00120746925689742,-0.025745700296822896,0.9996599543434246,0.0,0.0,0.0,0.0,0.0,0.0,0.0,0.0,0.0,0.00017453292519943296,-0.0020943951023931952,0.0020943951023931952,0.0,0.0,0.0,0.0,0.0,0.0,0.0,0.0,0.0,0.020593965,0.22359162,9.862547905,0.0,0.0,0.0,0.0,0.0,0.0,0.0,0.0,0.0
1704779929424725222,3056,1704779929424393687,imu_link,0.003778159164388097,0.00095025202537686,-0.025744515037529316,0.9996609637671661,0.0,0.0,0.0,0.0,0.0,0.0,0.0,0.0,0.0,0.005061454830783556,-0.0054105206811824215,-0.0005235987755982988,0.0,0.0,0.0,0.0,0.0,0.0,0.0,0.0,0.0,-0.050013915,-0.06864655,9.889025859999999,0.0,0.0,0.0,0.0,0.0,0.0,0.0,0.0,0.0
1704779929524482488,3057,1704779929524060997,imu_link,0.0042924934749187255,0.0005885743832139126,-0.025569061462534324,0.999663669028683,0.0,0.0,0.0,0.0,0.0,0.0,0.0,0.0,0.0,0.010821041362364843,-0.009948376736367677,0.005934119456780722,0.0,0.0,0.0,0.0,0.0,0.0,0.0,0.0,0.0,-0.01569064,0.15102241,9.68308621,0.0,0.0,0.0,0.0,0.0,0.0,0.0,0.0,0.0
1704779929625465811,3058,1704779929625024394,imu_link,0.0042835071197839395,0.0002407474764102617,-0.025305817932715653,0.9996705503245376,0.0,0.0,0.0,0.0,0.0,0.0,0.0,0.0,0.0,-0.0020943951023931952,-0.0008726646259971648,0.002617993877991494,0.0,0.0,0.0,0.0,0.0,0.0,0.0,0.0,0.0,0.10002783,0.15984839499999998,9.838031280000001,0.0,0.0,0.0,0.0,0.0,0.0,0.0,0.0,0.0
1704779929725181573,3059,1704779929724831085,imu_link,0.004024060213065692,0.0003339080511404708,-0.025480568067187317,0.999667162657546,0.0,0.0,0.0,0.0,0.0,0.0,0.0,0.0,0.0,-0.0010471975511965976,-0.004014257279586958,-0.005934119456780722,0.0,0.0,0.0,0.0,0.0,0.0,0.0,0.0,0.0,0.0392266,0.07747253500000001,9.912561819999999,0.0,0.0,0.0,0.0,0.0,0.0,0.0,0.0,0.0
1704779929825601364,3060,1704779929824994775,imu_link,0.003769122661866468,0.0006016333375989832,-0.025655981718732148,0.9996635445757414,0.0,0.0,0.0,0.0,0.0,0.0,0.0,0.0,0.0,0.014137166941154071,0.015009831567151233,0.0015707963267948967,0.0,0.0,0.0,0.0,0.0,0.0,0.0,0.0,0.0,-0.011767979999999999,-0.06668521999999999,9.678182885,0.0,0.0,0.0,0.0,0.0,0.0,0.0,0.0,0.0
1704779929925335819,3061,1704779929924918493,imu_link,0.004039704979249638,0.0009442171268504049,-0.025570299487651153,0.9996644182033337,0.0,0.0,0.0,0.0,0.0,0.0,0.0,0.0,0.0,0.01832595714594046,-0.005235987755982988,0.00017453292519943296,0.0,0.0,0.0,0.0,0.0,0.0,0.0,0.0,0.0,0.023535959999999998,0.08629852,9.895890515,0.0,0.0,0.0,0.0,0.0,0.0,0.0,0.0,0.0
1704779930024812379,3062,1704779930024407549,imu_link,0.0046570561242470256,0.0011903078582373892,-0.025572074074417698,0.9996614246948767,0.0,0.0,0.0,0.0,0.0,0.0,0.0,0.0,0.0,0.0010471975511965976,0.005061454830783556,0.00017453292519943296,0.0,0.0,0.0,0.0,0.0,0.0,0.0,0.0,0.0,-0.08924051499999999,0.28047019,9.899813175,0.0,0.0,0.0,0.0,0.0,0.0,0.0,0.0,0.0
1704779930124985656,3063,1704779930124573855,imu_link,0.003775687100862821,0.0008640038778644596,-0.025482434603003513,0.9996677664158823,0.0,0.0,0.0,0.0,0.0,0.0,0.0,0.0,0.0,-0.029321531433504733,-0.005759586531581288,0.0038397243543875246,0.0,0.0,0.0,0.0,0.0,0.0,0.0,0.0,0.0,-0.08041453,0.18730701499999997,9.876277215,0.0,0.0,0.0,0.0,0.0,0.0,0.0,0.0,0.0
1704779930225257362,3064,1704779930224757425,imu_link,0.0029187423985526165,0.0014971598219067298,-0.02539617732208465,0.9996720830515893,0.0,0.0,0.0,0.0,0.0,0.0,0.0,0.0,0.0,-0.0031415926535897933,0.01884955592153876,0.0012217304763960308,0.0,0.0,0.0,0.0,0.0,0.0,0.0,0.0,0.0,-0.047071919999999996,-0.28047019,9.793901355,0.0,0.0,0.0,0.0,0.0,0.0,0.0,0.0,0.0
1704779930324940373,3065,1704779930324531260,imu_link,0.003531348173976776,0.0015694998953593234,-0.025222922899966454,0.999674382191789,0.0,0.0,0.0,0.0,0.0,0.0,0.0,0.0,0.0,0.02234021442552742,-0.014486232791552934,0.0036651914291880917,0.0,0.0,0.0,0.0,0.0,0.0,0.0,0.0,0.0,-0.12356378999999999,0.19221033999999998,9.902755169999999,0.0,0.0,0.0,0.0,0.0,0.0,0.0,0.0,0.0
1704779930424825582,3066,1704779930424450886,imu_link,0.003777577961886291,0.0009525598800356852,-0.02513382938065436,0.9996765042527911,0.0,0.0,0.0,0.0,0.0,0.0,0.0,0.0,0.0,-0.003490658503988659,-0.014486232791552934,-0.0006981317007977319,0.0,0.0,0.0,0.0,0.0,0.0,0.0,0.0,0.0,-0.083356525,0.29419949999999995,9.772326725,0.0,0.0,0.0,0.0,0.0,0.0,0.0,0.0,0.0
1704779930524582096,3067,1704779930524165540,imu_link,0.003312864344436765,-0.00017086189378241742,-0.02521689727625936,0.9996764995876453,0.0,0.0,0.0,0.0,0.0,0.0,0.0,0.0,0.0,-0.0,-0.01972222054753592,0.0006981317007977319,0.0,0.0,0.0,0.0,0.0,0.0,0.0,0.0,0.0,0.067665885,-0.142196425,9.845876599999999,0.0,0.0,0.0,0.0,0.0,0.0,0.0,0.0,0.0
1704779930624477783,3068,1704779930624057369,imu_link,0.00410023478891772,-0.00010235579584383204,-0.024955414200181106,0.9996801512984361,0.0,0.0,0.0,0.0,0.0,0.0,0.0,0.0,0.0,0.015533430342749534,0.010297442586766544,0.004537856055185257,0.0,0.0,0.0,0.0,0.0,0.0,0.0,0.0,0.0,0.09610516999999999,0.13140911,9.884122535,0.0,0.0,0.0,0.0,0.0,0.0,0.0,0.0,0.0
1704779930725101078,3069,1704779930724626296,imu_link,0.004617197888554951,-0.0003763316421055634,-0.02477967929903588,0.9996822031785852,0.0,0.0,0.0,0.0,0.0,0.0,0.0,0.0,0.0,-0.005934119456780722,-0.008552113334772213,0.0019198621771937623,0.0,0.0,0.0,0.0,0.0,0.0,0.0,0.0,0.0,0.033342609999999995,0.30400615,9.747810099999999,0.0,0.0,0.0,0.0,0.0,0.0,0.0,0.0,0.0
1704779930825263554,3070,1704779930824796992,imu_link,0.004176631104060622,-0.0005403616746022781,-0.024866342318993886,0.999681913801363,0.0,0.0,0.0,0.0,0.0,0.0,0.0,0.0,0.0,-0.008028514559173916,-0.011693705988362009,-0.005235987755982988,0.0,0.0,0.0,0.0,0.0,0.0,0.0,0.0,0.0,-0.09218251,-0.07060788,9.984150365,0.0,0.0,0.0,0.0,0.0,0.0,0.0,0.0,0.0
1704779930924964327,3071,1704779930924572492,imu_link,0.004161136646640231,-0.0011521217161842704,-0.025125472437588,0.9996749812774884,0.0,0.0,0.0,0.0,0.0,0.0,0.0,0.0,0.0,0.0017453292519943296,0.0006981317007977319,-0.0008726646259971648,0.0,0.0,0.0,0.0,0.0,0.0,0.0,0.0,0.0,0.13925443,0.144157755,9.71839015,0.0,0.0,0.0,0.0,0.0,0.0,0.0,0.0,0.0
1704779931024388915,3072,1704779931024015427,imu_link,0.004169909897779871,-0.0008031693701905792,-0.02512694178935821,0.9996752490517714,0.0,0.0,0.0,0.0,0.0,0.0,0.0,0.0,0.0,-0.010471975511965976,-0.0015707963267948967,-0.0024434609527920616,0.0,0.0,0.0,0.0,0.0,0.0,0.0,0.0,0.0,-0.028439284999999995,0.212804305,9.889025859999999,0.0,0.0,0.0,0.0,0.0,0.0,0.0,0.0,0.0
1704779931124240541,3073,1704779931123843710,imu_link,0.003995294403818892,-0.000799481166921917,-0.025301547050325897,0.9996715611486359,0.0,0.0,0.0,0.0,0.0,0.0,0.0,0.0,0.0,-0.008028514559173916,0.007330382858376183,-0.003316125578789226,0.0,0.0,0.0,0.0,0.0,0.0,0.0,0.0,0.0,-0.055897905,0.01765197,9.7870367,0.0,0.0,0.0,0.0,0.0,0.0,0.0,0.0,0.0
1704779931225182172,3074,1704779931224818094,imu_link,0.00408911018426083,-0.0005403326762354745,-0.025389786796596897,0.9996691182310891,0.0,0.0,0.0,0.0,0.0,0.0,0.0,0.0,0.0,-0.006981317007977318,-0.0038397243543875246,-0.00034906585039886593,0.0,0.0,0.0,0.0,0.0,0.0,0.0,0.0,0.0,0.020593965,0.142196425,9.905697165,0.0,0.0,0.0,0.0,0.0,0.0,0.0,0.0,0.0
1704779931324867190,3075,1704779931324455774,imu_link,0.0036440577456516975,-0.0008782051341921972,-0.02538873575235719,0.999670626604476,0.0,0.0,0.0,0.0,0.0,0.0,0.0,0.0,0.0,-0.00645771823237902,0.0005235987755982988,0.0012217304763960308,0.0,0.0,0.0,0.0,0.0,0.0,0.0,0.0,0.0,0.069627215,0.047071919999999996,9.73408079,0.0,0.0,0.0,0.0,0.0,0.0,0.0,0.0,0.0
1704779931423825594,3076,1704779931423345461,imu_link,0.003916890333361714,-0.00044832188240392424,-0.025302991682425793,0.99967205402048,0.0,0.0,0.0,0.0,0.0,0.0,0.0,0.0,0.0,0.01832595714594046,0.00715584993317675,0.0008726646259971648,0.0,0.0,0.0,0.0,0.0,0.0,0.0,0.0,0.0,-0.059820565,-0.14709974999999997,9.913542484999999,0.0,0.0,0.0,0.0,0.0,0.0,0.0,0.0,0.0
1704779931524572708,3077,1704779931524188334,imu_link,0.004717486936243481,0.0001424681592942484,-0.025305510143779804,0.999668623182799,0.0,0.0,0.0,0.0,0.0,0.0,0.0,0.0,0.0,0.015707963267948967,0.014137166941154071,0.0005235987755982988,0.0,0.0,0.0,0.0,0.0,0.0,0.0,0.0,0.0,-0.0196133,0.25105024,9.85176059,0.0,0.0,0.0,0.0,0.0,0.0,0.0,0.0,0.0
1704779931624605254,3078,1704779931624167359,imu_link,0.004632437351957788,0.00023231830041698759,-0.02521866801547284,0.9996711986127803,0.0,0.0,0.0,0.0,0.0,0.0,0.0,0.0,0.0,-0.00034906585039886593,-0.0008726646259971648,0.002617993877991494,0.0,0.0,0.0,0.0,0.0,0.0,0.0,0.0,0.0,0.0784532,0.023535959999999998,9.960614405,0.0,0.0,0.0,0.0,0.0,0.0,0.0,0.0,0.0
1704779931724278859,3079,1704779931723841661,imu_link,0.004809058366099166,0.00031599380647387036,-0.02504466078029849,0.9996747161311751,0.0,0.0,0.0,0.0,0.0,0.0,0.0,0.0,0.0,0.019547687622336492,0.006108652381980153,0.004537856055185257,0.0,0.0,0.0,0.0,0.0,0.0,0.0,0.0,0.0,-0.008825985,-0.02549729,9.676221555,0.0,0.0,0.0,0.0,0.0,0.0,0.0,0.0,0.0
1704779931825265633,3080,1704779931824890742,imu_link,0.005517694305668935,0.0007361425478535958,-0.0247855679599009,0.999677292312176,0.0,0.0,0.0,0.0,0.0,0.0,0.0,0.0,0.0,0.010297442586766544,0.0036651914291880917,0.004014257279586958,0.0,0.0,0.0,0.0,0.0,0.0,0.0,0.0,0.0,-0.07747253500000001,0.29518016499999994,9.934136449999999,0.0,0.0,0.0,0.0,0.0,0.0,0.0,0.0,0.0
1704779931925119265,3081,1704779931924698710,imu_link,0.005430456124057644,0.000738305490407963,-0.024785503625072057,0.9996777700145878,0.0,0.0,0.0,0.0,0.0,0.0,0.0,0.0,0.0,-0.012217304763960306,0.007679448708775049,-0.0022689280275926286,0.0,0.0,0.0,0.0,0.0,0.0,0.0,0.0,0.0,0.11081514499999999,0.069627215,9.703680175,0.0,0.0,0.0,0.0,0.0,0.0,0.0,0.0,0.0
1704779932024327464,3082,1704779932023769683,imu_link,0.005262640597816166,0.0010034282844976102,-0.02496120412495314,0.9996740649002795,0.0,0.0,0.0,0.0,0.0,0.0,0.0,0.0,0.0,-0.004886921905584123,-0.006283185307179587,-0.003316125578789226,0.0,0.0,0.0,0.0,0.0,0.0,0.0,0.0,0.0,-0.00784532,0.122583125,9.562464414999999,0.0,0.0,0.0,0.0,0.0,0.0,0.0,0.0,0.0
1704779932124438090,3083,1704779932124017544,imu_link,0.005181934267209129,0.0012673206975991108,-0.024962455702343178,0.9996741555430991,0.0,0.0,0.0,0.0,0.0,0.0,0.0,0.0,0.0,-0.014137166941154071,0.01064650843716541,-0.0,0.0,0.0,0.0,0.0,0.0,0.0,0.0,0.0,0.0,-0.09414383999999999,0.22457228499999998,10.19107068,0.0,0.0,0.0,0.0,0.0,0.0,0.0,0.0,0.0
1704779932224074948,3084,1704779932223680740,imu_link,0.004756628913292246,0.001714403594349877,-0.024963938290450398,0.9996755659146258,0.0,0.0,0.0,0.0,0.0,0.0,0.0,0.0,0.0,-0.007853981633974483,0.01117010721276371,0.00017453292519943296,0.0,0.0,0.0,0.0,0.0,0.0,0.0,0.0,0.0,0.01372931,-0.00784532,9.46930124,0.0,0.0,0.0,0.0,0.0,0.0,0.0,0.0,0.0
1704779932324976286,3085,1704779932324564057,imu_link,0.0043222986325524805,0.001813288806462547,-0.02478909034395468,0.9996817147063133,0.0,0.0,0.0,0.0,0.0,0.0,0.0,0.0,0.0,-0.005759586531581288,-0.005934119456780722,0.006632251157578452,0.0,0.0,0.0,0.0,0.0,0.0,0.0,0.0,0.0,-0.13925443,0.128467115,10.35974506,0.0,0.0,0.0,0.0,0.0,0.0,0.0,0.0,0.0
1704779932423890124,3086,1704779932423511353,imu_link,0.004060264728040447,0.0018204871488934097,-0.024614147356354497,0.9996871229673806,0.0,0.0,0.0,0.0,0.0,0.0,0.0,0.0,0.0,-0.0038397243543875246,0.007330382858376183,0.0006981317007977319,0.0,0.0,0.0,0.0,0.0,0.0,0.0,0.0,0.0,-0.12748644999999997,0.01372931,9.528141139999999,0.0,0.0,0.0,0.0,0.0,0.0,0.0,0.0,0.0
1704779932523665317,3087,1704779932523259009,imu_link,0.004325928008810358,0.0019892763803381294,-0.02444083307751865,0.9996899393336027,0.0,0.0,0.0,0.0,0.0,0.0,0.0,0.0,0.0,0.008726646259971648,-0.006283185307179587,0.005235987755982988,0.0,0.0,0.0,0.0,0.0,0.0,0.0,0.0,0.0,-0.14513842,0.04118793,9.78311404,0.0,0.0,0.0,0.0,0.0,0.0,0.0,0.0,0.0
1704779932624496449,3088,1704779932624052534,imu_link,0.004751063885916054,0.0015436592517701088,-0.024177960221574885,0.9996951889188976,0.0,0.0,0.0,0.0,0.0,0.0,0.0,0.0,0.0,0.0041887902047863905,-0.004363323129985824,0.004363323129985824,0.0,0.0,0.0,0.0,0.0,0.0,0.0,0.0,0.0,0.026477955,0.17259704,10.008666989999998,0.0,0.0,0.0,0.0,0.0,0.0,0.0,0.0,0.0
1704779932724461995,3089,1704779932724047584,imu_link,0.00465924778160734,0.0013725089760658136,-0.02391532023451481,0.9997021881977156,0.0,0.0,0.0,0.0,0.0,0.0,0.0,0.0,0.0,0.00034906585039886593,-0.012391837689159739,0.005759586531581288,0.0,0.0,0.0,0.0,0.0,0.0,0.0,0.0,0.0,-0.046091255,0.046091255,9.44772661,0.0,0.0,0.0,0.0,0.0,0.0,0.0,0.0,0.0
1704779932824610676,3090,1704779932824152629,imu_link,0.0045530791812984596,0.0005906227805888919,-0.023649951056483254,0.999709758104684,0.0,0.0,0.0,0.0,0.0,0.0,0.0,0.0,0.0,0.004363323129985824,-0.009948376736367677,0.005585053606381855,0.0,0.0,0.0,0.0,0.0,0.0,0.0,0.0,0.0,-0.00784532,0.057859234999999995,10.051816249999998,0.0,0.0,0.0,0.0,0.0,0.0,0.0,0.0,0.0
1704779932926517316,3091,1704779932926036016,imu_link,0.004546831652058135,0.000329693135134757,-0.023474235172748163,0.9997140480694562,0.0,0.0,0.0,0.0,0.0,0.0,0.0,0.0,0.0,0.0017453292519943296,-0.006283185307179587,0.003316125578789226,0.0,0.0,0.0,0.0,0.0,0.0,0.0,0.0,0.0,0.05687856999999999,0.163771055,9.793901355,0.0,0.0,0.0,0.0,0.0,0.0,0.0,0.0,0.0
1704779933023813850,3092,1704779933023481082,imu_link,0.004364159233935882,-1.4033723052504283e-05,-0.023210946974641575,0.9997210640262492,0.0,0.0,0.0,0.0,0.0,0.0,0.0,0.0,0.0,0.00645771823237902,-0.00645771823237902,0.003490658503988659,0.0,0.0,0.0,0.0,0.0,0.0,0.0,0.0,0.0,0.04412992499999999,-0.038245934999999995,9.668376235,0.0,0.0,0.0,0.0,0.0,0.0,0.0,0.0,0.0
1704779933124581012,3093,1704779933124137743,imu_link,0.004278942692807987,7.523396403899391e-05,-0.02321132090046304,0.9997214209825345,0.0,0.0,0.0,0.0,0.0,0.0,0.0,0.0,0.0,-0.00034906585039886593,0.0054105206811824215,-0.0017453292519943296,0.0,0.0,0.0,0.0,0.0,0.0,0.0,0.0,0.0,-0.07649186999999999,0.179461695,10.115559475,0.0,0.0,0.0,0.0,0.0,0.0,0.0,0.0,0.0
1704779933223764651,3094,1704779933223290074,imu_link,0.004021266879008826,0.00025579516484311915,-0.02321199977766308,0.9997224450055341,0.0,0.0,0.0,0.0,0.0,0.0,0.0,0.0,0.0,-0.009075712110370514,0.005061454830783556,0.003490658503988659,0.0,0.0,0.0,0.0,0.0,0.0,0.0,0.0,0.0,0.048052584999999995,0.051975244999999996,9.51048917,0.0,0.0,0.0,0.0,0.0,0.0,0.0,0.0,0.0
1704779933323454426,3095,1704779933323076447,imu_link,0.003589067609901884,0.000440721232384957,-0.023125271279458168,0.9997260355651134,0.0,0.0,0.0,0.0,0.0,0.0,0.0,0.0,0.0,0.00034906585039886593,0.002967059728390361,0.00017453292519943296,0.0,0.0,0.0,0.0,0.0,0.0,0.0,0.0,0.0,-0.00784532,0.057859234999999995,10.11654014,0.0,0.0,0.0,0.0,0.0,0.0,0.0,0.0,0.0
1704779933423679692,3096,1704779933423318067,imu_link,0.003503750127951473,0.0005305934059335459,-0.022951061139585626,0.9997303091325408,0.0,0.0,0.0,0.0,0.0,0.0,0.0,0.0,0.0,-0.00645771823237902,0.00017453292519943296,0.0054105206811824215,0.0,0.0,0.0,0.0,0.0,0.0,0.0,0.0,0.0,-0.10198916,0.1372931,9.73015813,0.0,0.0,0.0,0.0,0.0,0.0,0.0,0.0,0.0
1704779933523816294,3097,1704779933523632213,imu_link,0.0029702605338142673,0.00010691339671089361,-0.0227750138138518,0.9997361976379898,0.0,0.0,0.0,0.0,0.0,0.0,0.0,0.0,0.0,-0.0031415926535897933,-0.011868238913561443,0.003490658503988659,0.0,0.0,0.0,0.0,0.0,0.0,0.0,0.0,0.0,-0.00392266,-0.00196133,9.650724265,0.0,0.0,0.0,0.0,0.0,0.0,0.0,0.0,0.0
1704779933624394901,3098,1704779933624016826,imu_link,0.0032299996869210187,1.4553290350443823e-05,-0.02251298488638449,0.9997413327464907,0.0,0.0,0.0,0.0,0.0,0.0,0.0,0.0,0.0,0.009773843811168246,-0.0008726646259971648,0.006108652381980153,0.0,0.0,0.0,0.0,0.0,0.0,0.0,0.0,0.0,-0.032361944999999996,-0.018632634999999998,10.151844079999998,0.0,0.0,0.0,0.0,0.0,0.0,0.0,0.0,0.0
1704779933724209370,3099,1704779933723765499,imu_link,0.0038387568978197556,-8.577286795374202e-05,-0.022338177444647774,0.9997430982092078,0.0,0.0,0.0,0.0,0.0,0.0,0.0,0.0,0.0,-0.0005235987755982988,0.0019198621771937623,-0.0005235987755982988,0.0,0.0,0.0,0.0,0.0,0.0,0.0,0.0,0.0,0.02549729,0.25399223499999996,9.43791996,0.0,0.0,0.0,0.0,0.0,0.0,0.0,0.0,0.0
1704779933823796024,3100,1704779933823462896,imu_link,0.003487830969861527,-0.00016521951769118688,-0.022337901398280395,0.9997443802786576,0.0,0.0,0.0,0.0,0.0,0.0,0.0,0.0,0.0,-0.00890117918517108,-0.012217304763960306,0.0017453292519943296,0.0,0.0,0.0,0.0,0.0,0.0,0.0,0.0,0.0,-0.03138128,-0.020593965,10.10281083,0.0,0.0,0.0,0.0,0.0,0.0,0.0,0.0,0.0
1704779933923761990,3101,1704779933923403309,imu_link,0.003741901529329046,-0.000519064278936184,-0.022074828631167196,0.9997491838887009,0.0,0.0,0.0,0.0,0.0,0.0,0.0,0.0,0.0,0.007679448708775049,0.00471238898038469,0.0041887902047863905,0.0,0.0,0.0,0.0,0.0,0.0,0.0,0.0,0.0,0.09414383999999999,-0.026477955,9.844895935,0.0,0.0,0.0,0.0,0.0,0.0,0.0,0.0,0.0
1704779934023894234,3102,1704779934023529197,imu_link,0.004005638147522737,-0.0004368998851923869,-0.021900564174352596,0.9997520338915878,0.0,0.0,0.0,0.0,0.0,0.0,0.0,0.0,0.0,-0.005235987755982988,-0.003316125578789226,0.002617993877991494,0.0,0.0,0.0,0.0,0.0,0.0,0.0,0.0,0.0,0.03530394,0.30792880999999994,9.701718844999998,0.0,0.0,0.0,0.0,0.0,0.0,0.0,0.0,0.0
1704779934123624444,3103,1704779934123262930,imu_link,0.003391153014130177,-0.0005977156047055527,-0.021812991609800988,0.9997561383729141,0.0,0.0,0.0,0.0,0.0,0.0,0.0,0.0,0.0,-0.010122909661567111,-0.0027925268031909274,0.0015707963267948967,0.0,0.0,0.0,0.0,0.0,0.0,0.0,0.0,0.0,-0.033342609999999995,-0.03530394,10.037106275,0.0,0.0,0.0,0.0,0.0,0.0,0.0,0.0,0.0
1704779934223466015,3104,1704779934223172668,imu_link,0.003394997587392402,-0.00042292901559806906,-0.02172634712370923,0.9997581012240357,0.0,0.0,0.0,0.0,0.0,0.0,0.0,0.0,0.0,0.01291543646475804,0.00715584993317675,0.0013962634015954637,0.0,0.0,0.0,0.0,0.0,0.0,0.0,0.0,0.0,0.023535959999999998,-0.08629852,9.715448154999999,0.0,0.0,0.0,0.0,0.0,0.0,0.0,0.0,0.0
1704779934323135274,3105,1704779934322837684,imu_link,0.003749667152001216,-0.00016877719031113594,-0.021727181567927245,0.9997568909948176,0.0,0.0,0.0,0.0,0.0,0.0,0.0,0.0,0.0,-0.0013962634015954637,-0.00034906585039886593,0.00034906585039886593,0.0,0.0,0.0,0.0,0.0,0.0,0.0,0.0,0.0,0.0058839899999999995,0.289296175,9.886083865,0.0,0.0,0.0,0.0,0.0,0.0,0.0,0.0,0.0
1704779934423826724,3106,1704779934423321865,imu_link,0.0033115444520092274,-0.0002465422810935584,-0.0217269635767006,0.9997584267931842,0.0,0.0,0.0,0.0,0.0,0.0,0.0,0.0,0.0,-0.0158824961931484,0.0024434609527920616,0.0020943951023931952,0.0,0.0,0.0,0.0,0.0,0.0,0.0,0.0,0.0,-0.057859234999999995,0.07943386499999999,9.834108619999999,0.0,0.0,0.0,0.0,0.0,0.0,0.0,0.0,0.0
1704779934523124374,3107,1704779934522877769,imu_link,0.0030517310458948095,-0.00015307594030966506,-0.021552753795054145,0.9997630430803239,0.0,0.0,0.0,0.0,0.0,0.0,0.0,0.0,0.0,0.007330382858376183,-0.004014257279586958,0.0024434609527920616,0.0,0.0,0.0,0.0,0.0,0.0,0.0,0.0,0.0,-0.03138128,-0.14611908499999998,9.647782269999999,0.0,0.0,0.0,0.0,0.0,0.0,0.0,0.0,0.0
1704779934624295315,3108,1704779934623897079,imu_link,0.003139003906430226,-0.00015440895015929768,-0.02137825902876562,0.9997665191699763,0.0,0.0,0.0,0.0,0.0,0.0,0.0,0.0,0.0,0.003490658503988659,0.0022689280275926286,0.003316125578789226,0.0,0.0,0.0,0.0,0.0,0.0,0.0,0.0,0.0,0.03138128,0.20593965,9.997879675,0.0,0.0,0.0,0.0,0.0,0.0,0.0,0.0,0.0
1704779934724146348,3109,1704779934723809745,imu_link,0.003057335464446789,0.00010972855887663135,-0.021204589595461964,0.9997704766793172,0.0,0.0,0.0,0.0,0.0,0.0,0.0,0.0,0.0,-0.007679448708775049,0.008203047484373348,0.0036651914291880917,0.0,0.0,0.0,0.0,0.0,0.0,0.0,0.0,0.0,-0.033342609999999995,0.011767979999999999,9.746829434999999,0.0,0.0,0.0,0.0,0.0,0.0,0.0,0.0,0.0
1704779934823058360,3110,1704779934822681046,imu_link,0.0029755747029691264,0.0003738376874751606,-0.02103087214807144,0.9997743288448958,0.0,0.0,0.0,0.0,0.0,0.0,0.0,0.0,0.0,-0.0019198621771937623,0.004886921905584123,0.0005235987755982988,0.0,0.0,0.0,0.0,0.0,0.0,0.0,0.0,0.0,-0.048052584999999995,0.048052584999999995,9.9047165,0.0,0.0,0.0,0.0,0.0,0.0,0.0,0.0,0.0
1704779934923330246,3111,1704779934923030042,imu_link,0.0034136435119084298,0.00045190782573241054,-0.021031329318425704,0.9997728872120861,0.0,0.0,0.0,0.0,0.0,0.0,0.0,0.0,0.0,0.005235987755982988,-0.008203047484373348,0.004014257279586958,0.0,0.0,0.0,0.0,0.0,0.0,0.0,0.0,0.0,0.030400614999999995,0.01372931,9.747810099999999,0.0,0.0,0.0,0.0,0.0,0.0,0.0,0.0,0.0
1704779935023085141,3112,1704779935022784164,imu_link,0.003762513264975957,0.00044555146103443993,-0.020769761247438668,0.9997771061569428,0.0,0.0,0.0,0.0,0.0,0.0,0.0,0.0,0.0,0.0024434609527920616,0.007330382858376183,0.0036651914291880917,0.0,0.0,0.0,0.0,0.0,0.0,0.0,0.0,0.0,0.02157463,0.20986230999999997,9.964537065,0.0,0.0,0.0,0.0,0.0,0.0,0.0,0.0,0.0
1704779935123799712,3113,1704779935123521815,imu_link,0.0035915890829666675,0.0006239840201501632,-0.020683063408687426,0.9997794366858292,0.0,0.0,0.0,0.0,0.0,0.0,0.0,0.0,0.0,-0.007504915783575617,0.004363323129985824,0.0017453292519943296,0.0,0.0,0.0,0.0,0.0,0.0,0.0,0.0,0.0,-0.042168594999999996,0.050013915,9.75369409,0.0,0.0,0.0,0.0,0.0,0.0,0.0,0.0,0.0
1704779935222796308,3114,1704779935222488369,imu_link,0.003509600165892678,0.0008881434560249586,-0.02050937421791888,0.9997831062170767,0.0,0.0,0.0,0.0,0.0,0.0,0.0,0.0,0.0,0.0054105206811824215,-0.0010471975511965976,0.004363323129985824,0.0,0.0,0.0,0.0,0.0,0.0,0.0,0.0,0.0,0.010787315,-0.05687856999999999,9.82430197,0.0,0.0,0.0,0.0,0.0,0.0,0.0,0.0,0.0
1704779935322489274,3115,1704779935322211749,imu_link,0.0036804547417504585,0.000710390037438755,-0.020421650167438177,0.9997844296663794,0.0,0.0,0.0,0.0,0.0,0.0,0.0,0.0,0.0,0.0005235987755982988,0.0012217304763960308,-0.0012217304763960308,0.0,0.0,0.0,0.0,0.0,0.0,0.0,0.0,0.0,0.04314926,0.20593965,9.7870367,0.0,0.0,0.0,0.0,0.0,0.0,0.0,0.0,0.0
1704779935423546861,3116,1704779935423236583,imu_link,0.003251342580306153,0.001068291730631671,-0.020422458262436764,0.9997855823739022,0.0,0.0,0.0,0.0,0.0,0.0,0.0,0.0,0.0,-0.011344640137963142,0.007504915783575617,0.0019198621771937623,0.0,0.0,0.0,0.0,0.0,0.0,0.0,0.0,0.0,-0.08825984999999999,0.04903325,9.727216134999999,0.0,0.0,0.0,0.0,0.0,0.0,0.0,0.0,0.0
1704779935523423872,3117,1704779935523114950,imu_link,0.00298773149183574,0.000986651067899216,-0.020334678310274055,0.9997882780060088,0.0,0.0,0.0,0.0,0.0,0.0,0.0,0.0,0.0,0.006981317007977318,0.0024434609527920616,0.0027925268031909274,0.0,0.0,0.0,0.0,0.0,0.0,0.0,0.0,0.0,-0.01372931,-0.07747253500000001,9.99493768,0.0,0.0,0.0,0.0,0.0,0.0,0.0,0.0,0.0
1704779935623765884,3118,1704779935623410080,imu_link,0.0036054470196392754,0.001323535004057476,-0.020249274639126368,0.9997875853817504,0.0,0.0,0.0,0.0,0.0,0.0,0.0,0.0,0.0,0.011519173063162576,-0.0041887902047863905,0.0020943951023931952,0.0,0.0,0.0,0.0,0.0,0.0,0.0,0.0,0.0,-0.09022118,0.25889555999999997,9.799785344999998,0.0,0.0,0.0,0.0,0.0,0.0,0.0,0.0,0.0
1704779935723569021,3119,1704779935723345519,imu_link,0.0032457160792784922,0.0008076813094217651,-0.020072647198713295,0.9997929294671326,0.0,0.0,0.0,0.0,0.0,0.0,0.0,0.0,0.0,-0.01291543646475804,-0.008028514559173916,0.005235987755982988,0.0,0.0,0.0,0.0,0.0,0.0,0.0,0.0,0.0,-0.040207265,0.206920315,9.71446749,0.0,0.0,0.0,0.0,0.0,0.0,0.0,0.0,0.0
1704779935822759990,3120,1704779935822495580,imu_link,0.0028109883617844027,0.0009044240255325195,-0.019810804509588227,0.999799386070173,0.0,0.0,0.0,0.0,0.0,0.0,0.0,0.0,0.0,0.0027925268031909274,-0.0010471975511965976,0.0015707963267948967,0.0,0.0,0.0,0.0,0.0,0.0,0.0,0.0,0.0,-0.15102241,-0.25889555999999997,9.970421055,0.0,0.0,0.0,0.0,0.0,0.0,0.0,0.0,0.0
1704779935922561179,3121,1704779935922309911,imu_link,0.0032419924679394857,0.0006343161226339305,-0.019723112731934726,0.9998000229806246,0.0,0.0,0.0,0.0,0.0,0.0,0.0,0.0,0.0,0.01064650843716541,0.005235987755982988,0.003316125578789226,0.0,0.0,0.0,0.0,0.0,0.0,0.0,0.0,0.0,0.106892485,0.23928226,9.63209163,0.0,0.0,0.0,0.0,0.0,0.0,0.0,0.0,0.0
1704779936023595485,3122,1704779936023194573,imu_link,0.003245292710751461,0.0008093807425554666,-0.019549126094156745,0.9998033029786357,0.0,0.0,0.0,0.0,0.0,0.0,0.0,0.0,0.0,-0.011868238913561443,-0.010297442586766544,0.002617993877991494,0.0,0.0,0.0,0.0,0.0,0.0,0.0,0.0,0.0,-0.042168594999999996,0.12552512,9.87137389,0.0,0.0,0.0,0.0,0.0,0.0,0.0,0.0,0.0
1704779936123508799,3123,1704779936123087438,imu_link,0.0028792489072780574,-5.578707376944761e-05,-0.0193718485782203,0.9998082007546221,0.0,0.0,0.0,0.0,0.0,0.0,0.0,0.0,0.0,0.010122909661567111,-0.01117010721276371,0.006981317007977318,0.0,0.0,0.0,0.0,0.0,0.0,0.0,0.0,0.0,-0.0588399,-0.15004174499999998,10.048874255,0.0,0.0,0.0,0.0,0.0,0.0,0.0,0.0,0.0
1704779936222284880,3124,1704779936221905403,imu_link,0.0036645138254475106,-7.004236016211619e-05,-0.01911006541036477,0.9998106679929468,0.0,0.0,0.0,0.0,0.0,0.0,0.0,0.0,0.0,0.017976891295541593,0.005585053606381855,0.002617993877991494,0.0,0.0,0.0,0.0,0.0,0.0,0.0,0.0,0.0,0.04412992499999999,0.14317708999999998,9.56932907,0.0,0.0,0.0,0.0,0.0,0.0,0.0,0.0,0.0
1704779936322928236,3125,1704779936322660919,imu_link,0.003922950163650445,-0.0002492027468594925,-0.01902211620069262,0.9998113359305603,0.0,0.0,0.0,0.0,0.0,0.0,0.0,0.0,0.0,-0.007853981633974483,-0.013439035240356337,0.0036651914291880917,0.0,0.0,0.0,0.0,0.0,0.0,0.0,0.0,0.0,0.12454445499999998,0.22555294999999997,9.95571108,0.0,0.0,0.0,0.0,0.0,0.0,0.0,0.0,0.0
1704779936422842580,3126,1704779936422554183,imu_link,0.0031294565879631682,-0.000670240824797405,-0.01893368723115179,0.9998156193851613,0.0,0.0,0.0,0.0,0.0,0.0,0.0,0.0,0.0,-0.009773843811168246,0.0019198621771937623,-0.00017453292519943296,0.0,0.0,0.0,0.0,0.0,0.0,0.0,0.0,0.0,0.22947561,-0.053936574999999994,9.952769084999998,0.0,0.0,0.0,0.0,0.0,0.0,0.0,0.0,0.0
1704779936522524376,3127,1704779936522241266,imu_link,0.003043858707013459,-0.0005813381182214483,-0.018934013078082547,0.9998159331191532,0.0,0.0,0.0,0.0,0.0,0.0,0.0,0.0,0.0,0.00471238898038469,-0.0012217304763960308,0.0019198621771937623,0.0,0.0,0.0,0.0,0.0,0.0,0.0,0.0,0.0,0.385401345,-0.046091255,9.602671679999998,0.0,0.0,0.0,0.0,0.0,0.0,0.0,0.0,0.0
1704779936623807526,3128,1704779936623445771,imu_link,0.003134449946698179,-0.000408216177038299,-0.018847266736425523,0.9998173778844066,0.0,0.0,0.0,0.0,0.0,0.0,0.0,0.0,0.0,0.008552113334772213,0.004363323129985824,0.0020943951023931952,0.0,0.0,0.0,0.0,0.0,0.0,0.0,0.0,0.0,-0.06864655,0.163771055,10.051816249999998,0.0,0.0,0.0,0.0,0.0,0.0,0.0,0.0,0.0
1704779936723251575,3129,1704779936723028717,imu_link,0.0027804547780012085,-0.0006636316778698468,-0.018933920035915253,0.999816650859695,0.0,0.0,0.0,0.0,0.0,0.0,0.0,0.0,0.0,-0.00890117918517108,-0.01064650843716541,-0.007853981633974483,0.0,0.0,0.0,0.0,0.0,0.0,0.0,0.0,0.0,-0.18534568499999998,-0.053936574999999994,9.644840275,0.0,0.0,0.0,0.0,0.0,0.0,0.0,0.0,0.0
1704779936822396902,3130,1704779936822162978,imu_link,0.0025197560523945828,-0.0005740631989451216,-0.019981307073205484,0.9997970137225488,0.0,0.0,0.0,0.0,0.0,0.0,0.0,0.0,0.0,0.00645771823237902,0.006632251157578452,-0.027052603405912107,0.0,0.0,0.0,0.0,0.0,0.0,0.0,0.0,0.0,-0.157887065,-0.12650578499999998,9.921387805,0.0,0.0,0.0,0.0,0.0,0.0,0.0,0.0,0.0
1704779936922928036,3131,1704779936922516623,imu_link,0.002871775816194656,-0.00040979881063331287,-0.021115820341183193,0.9997728277463411,0.0,0.0,0.0,0.0,0.0,0.0,0.0,0.0,0.0,0.007504915783575617,-0.0022689280275926286,-0.01884955592153876,0.0,0.0,0.0,0.0,0.0,0.0,0.0,0.0,0.0,-0.255953565,0.11277647499999999,9.8851032,0.0,0.0,0.0,0.0,0.0,0.0,0.0,0.0,0.0
1704779937022960511,3132,1704779937022641825,imu_link,0.0031253418454224597,-0.0007675863866671728,-0.02216155544840684,0.9997492228101983,0.0,0.0,0.0,0.0,0.0,0.0,0.0,0.0,0.0,-0.0022689280275926286,-0.002617993877991494,-0.025132741228718346,0.0,0.0,0.0,0.0,0.0,0.0,0.0,0.0,0.0,-0.028439284999999995,0.061781894999999996,9.59482636,0.0,0.0,0.0,0.0,0.0,0.0,0.0,0.0,0.0
1704779937123291372,3133,1704779937122802949,imu_link,0.0031242670654727115,-0.0007719493606111496,-0.023557422052101352,0.9997173054997834,0.0,0.0,0.0,0.0,0.0,0.0,0.0,0.0,0.0,-0.004014257279586958,-0.009948376736367677,-0.024783675378319478,0.0,0.0,0.0,0.0,0.0,0.0,0.0,0.0,0.0,0.024516625,0.050013915,10.027299625,0.0,0.0,0.0,0.0,0.0,0.0,0.0,0.0,0.0
1704779937222170213,3134,1704779937221804543,imu_link,0.0032916750455290653,-0.0010406590589144382,-0.02442882909600359,0.9996956107801594,0.0,0.0,0.0,0.0,0.0,0.0,0.0,0.0,0.0,0.002967059728390361,0.006806784082777885,-0.011868238913561443,0.0,0.0,0.0,0.0,0.0,0.0,0.0,0.0,0.0,0.057859234999999995,0.020593965,9.666414905,0.0,0.0,0.0,0.0,0.0,0.0,0.0,0.0,0.0
1704779937322809615,3135,1704779937322362077,imu_link,0.003563682471293866,-0.000613032427294497,-0.025040821504281933,0.9996798895730961,0.0,0.0,0.0,0.0,0.0,0.0,0.0,0.0,0.0,0.003490658503988659,-0.0006981317007977319,-0.015184364492350668,0.0,0.0,0.0,0.0,0.0,0.0,0.0,0.0,0.0,-0.08924051499999999,0.09120184499999999,10.012589649999999,0.0,0.0,0.0,0.0,0.0,0.0,0.0,0.0,0.0
1704779937422797735,3136,1704779937422349835,imu_link,0.0035542675743233856,-0.0009644681253839038,-0.02573748627685469,0.9996619522535576,0.0,0.0,0.0,0.0,0.0,0.0,0.0,0.0,0.0,0.0012217304763960308,-0.002617993877991494,-0.013788101090755204,0.0,0.0,0.0,0.0,0.0,0.0,0.0,0.0,0.0,0.06864655,0.00392266,9.800766009999998,0.0,0.0,0.0,0.0,0.0,0.0,0.0,0.0,0.0
1704779937523005049,3137,1704779937522621091,imu_link,0.0034615440575144416,-0.0011397172121462905,-0.026609323824390806,0.9996392662570948,0.0,0.0,0.0,0.0,0.0,0.0,0.0,0.0,0.0,-0.0008726646259971648,-0.0038397243543875246,-0.018500490071139894,0.0,0.0,0.0,0.0,0.0,0.0,0.0,0.0,0.0,0.028439284999999995,0.140235095,9.988073024999998,0.0,0.0,0.0,0.0,0.0,0.0,0.0,0.0,0.0
1704779937622255328,3138,1704779937621728209,imu_link,0.0031092175623552098,-0.001220377499538099,-0.027481731349752948,0.9996167254937909,0.0,0.0,0.0,0.0,0.0,0.0,0.0,0.0,0.0,-0.008552113334772213,0.0008726646259971648,-0.015184364492350668,0.0,0.0,0.0,0.0,0.0,0.0,0.0,0.0,0.0,0.010787315,0.050013915,9.53010247,0.0,0.0,0.0,0.0,0.0,0.0,0.0,0.0,0.0
1704779937722360005,3139,1704779937721923962,imu_link,0.003200698741829995,-0.0010499858639956665,-0.028005615362322725,0.999602090116576,0.0,0.0,0.0,0.0,0.0,0.0,0.0,0.0,0.0,0.017278759594743863,-0.00034906585039886593,-0.009948376736367677,0.0,0.0,0.0,0.0,0.0,0.0,0.0,0.0,0.0,-0.034323275,-0.15396440499999997,10.01847364,0.0,0.0,0.0,0.0,0.0,0.0,0.0,0.0,0.0
1704779937822410233,3140,1704779937822088092,imu_link,0.0039027369109201644,-0.0008981397158207149,-0.028790652214393357,0.9995774408892615,0.0,0.0,0.0,0.0,0.0,0.0,0.0,0.0,0.0,0.006806784082777885,0.015533430342749534,-0.015707963267948967,0.0,0.0,0.0,0.0,0.0,0.0,0.0,0.0,0.0,0.283412185,0.31283213499999996,9.523237815,0.0,0.0,0.0,0.0,0.0,0.0,0.0,0.0,0.0
1704779937923032475,3141,1704779937922484334,imu_link,0.003214719504025529,-0.000530523244066505,-0.029228525014713926,0.9995674451726917,0.0,0.0,0.0,0.0,0.0,0.0,0.0,0.0,0.0,-0.020245819323134222,-0.010297442586766544,-0.005061454830783556,0.0,0.0,0.0,0.0,0.0,0.0,0.0,0.0,0.0,0.050013915,0.10591182,10.07731354,0.0,0.0,0.0,0.0,0.0,0.0,0.0,0.0,0.0
1704779938022831036,3142,1704779938022355786,imu_link,0.0029554318391058006,-0.0004366742096335998,-0.029577874619834504,0.9995580143599732,0.0,0.0,0.0,0.0,0.0,0.0,0.0,0.0,0.0,0.01884955592153876,0.01064650843716541,-0.007504915783575617,0.0,0.0,0.0,0.0,0.0,0.0,0.0,0.0,0.0,-0.12062179499999999,-0.33538743,9.966498394999999,0.0,0.0,0.0,0.0,0.0,0.0,0.0,0.0,0.0
1704779938122917646,3143,1704779938122536342,imu_link,0.004001960491799647,-0.00046939397167542846,-0.030013509858042766,0.9995413714336804,0.0,0.0,0.0,0.0,0.0,0.0,0.0,0.0,0.0,0.017104226669544427,-0.0019198621771937623,-0.008203047484373348,0.0,0.0,0.0,0.0,0.0,0.0,0.0,0.0,0.0,0.047071919999999996,0.32558077999999996,9.60659434,0.0,0.0,0.0,0.0,0.0,0.0,0.0,0.0,0.0
1704779938221992082,3144,1704779938221662512,imu_link,0.004104907193133137,5.0987098956851914e-05,-0.03010283776464335,0.9995383765998017,0.0,0.0,0.0,0.0,0.0,0.0,0.0,0.0,0.0,-0.005235987755982988,0.013264502315156903,0.008028514559173916,0.0,0.0,0.0,0.0,0.0,0.0,0.0,0.0,0.0,-0.0392266,0.26477955,9.92040714,0.0,0.0,0.0,0.0,0.0,0.0,0.0,0.0,0.0
1704779938321792898,3145,1704779938321447597,imu_link,0.004296999416805927,0.0006611911380380569,-0.028971498891118937,0.9995707833236688,0.0,0.0,0.0,0.0,0.0,0.0,0.0,0.0,0.0,0.015358897417550098,0.013439035240356337,0.02949606435870417,0.0,0.0,0.0,0.0,0.0,0.0,0.0,0.0,0.0,-0.03530394,-0.0392266,9.782133375,0.0,0.0,0.0,0.0,0.0,0.0,0.0,0.0,0.0
1704779938422738816,3146,1704779938422449390,imu_link,0.005092907463645869,0.0010830261744810463,-0.027316801645486263,0.9996132660662989,0.0,0.0,0.0,0.0,0.0,0.0,0.0,0.0,0.0,0.010297442586766544,-0.0010471975511965976,0.035953782591083186,0.0,0.0,0.0,0.0,0.0,0.0,0.0,0.0,0.0,-0.06080122999999999,0.322638785,9.91844581,0.0,0.0,0.0,0.0,0.0,0.0,0.0,0.0,0.0
1704779938522377417,3147,1704779938522113916,imu_link,0.0048093050676162735,0.00031221662492356725,-0.025829807897802568,0.9996547374616439,0.0,0.0,0.0,0.0,0.0,0.0,0.0,0.0,0.0,-0.014660765716752367,-0.017278759594743863,0.019198621771937627,0.0,0.0,0.0,0.0,0.0,0.0,0.0,0.0,0.0,0.0,0.075511205,9.611497665,0.0,0.0,0.0,0.0,0.0,0.0,0.0,0.0,0.0
1704779938621558688,3148,1704779938621092069,imu_link,0.004198534704359265,0.00032946085515048347,-0.025480625956952194,0.9996664451019264,0.0,0.0,0.0,0.0,0.0,0.0,0.0,0.0,0.0,-0.0012217304763960308,0.010471975511965976,0.0010471975511965976,0.0,0.0,0.0,0.0,0.0,0.0,0.0,0.0,0.0,-0.067665885,-0.102969825,10.072410214999998,0.0,0.0,0.0,0.0,0.0,0.0,0.0,0.0,0.0
1704779938722445090,3149,1704779938721812475,imu_link,0.004473290051495258,0.0008477750084735754,-0.025134102205820043,0.9996737207008882,0.0,0.0,0.0,0.0,0.0,0.0,0.0,0.0,0.0,0.0038397243543875246,0.014137166941154071,0.012566370614359173,0.0,0.0,0.0,0.0,0.0,0.0,0.0,0.0,0.0,0.06472388999999999,0.15494507000000002,9.592865029999999,0.0,0.0,0.0,0.0,0.0,0.0,0.0,0.0,0.0
1704779938821959399,3150,1704779938821631925,imu_link,0.004309101920910495,0.0012906082123806625,-0.024612406227048127,0.9996869487148426,0.0,0.0,0.0,0.0,0.0,0.0,0.0,0.0,0.0,-0.007853981633974483,-0.0005235987755982988,0.009075712110370514,0.0,0.0,0.0,0.0,0.0,0.0,0.0,0.0,0.0,-0.06472388999999999,0.21868829499999998,9.766442735,0.0,0.0,0.0,0.0,0.0,0.0,0.0,0.0,0.0
1704779938922180402,3151,1704779938921830169,imu_link,0.0036809323366933703,0.0006096550793325252,-0.024085605303713932,0.9997029372143361,0.0,0.0,0.0,0.0,0.0,0.0,0.0,0.0,0.0,-0.0036651914291880917,-0.02495820830351891,0.013962634015954637,0.0,0.0,0.0,0.0,0.0,0.0,0.0,0.0,0.0,-0.06472388999999999,0.006864655,9.631110965,0.0,0.0,0.0,0.0,0.0,0.0,0.0,0.0,0.0
1704779939022283882,3152,1704779939022048940,imu_link,0.003323327983740718,0.00027200013503008694,-0.023211815542329553,0.999725008753041,0.0,0.0,0.0,0.0,0.0,0.0,0.0,0.0,0.0,0.00471238898038469,0.006283185307179587,0.016755160819145562,0.0,0.0,0.0,0.0,0.0,0.0,0.0,0.0,0.0,0.0058839899999999995,0.02157463,10.07731354,0.0,0.0,0.0,0.0,0.0,0.0,0.0,0.0,0.0
1704779939122229511,3153,1704779939121799427,imu_link,0.0034996205919914955,0.00035732906221759466,-0.022601502070334165,0.9997383643112923,0.0,0.0,0.0,0.0,0.0,0.0,0.0,0.0,0.0,-0.0006981317007977319,-0.0015707963267948967,0.010995574287564275,0.0,0.0,0.0,0.0,0.0,0.0,0.0,0.0,0.0,-0.018632634999999998,0.11866046499999999,9.67524089,0.0,0.0,0.0,0.0,0.0,0.0,0.0,0.0,0.0
1704779939221297236,3154,1704779939220992506,imu_link,0.0034102620598782433,0.00027384348374570426,-0.022077681591615935,0.9997504044000024,0.0,0.0,0.0,0.0,0.0,0.0,0.0,0.0,0.0,-0.0038397243543875246,-0.004537856055185257,0.007853981633974483,0.0,0.0,0.0,0.0,0.0,0.0,0.0,0.0,0.0,-0.08139519499999999,0.10395048999999999,9.969440389999999,0.0,0.0,0.0,0.0,0.0,0.0,0.0,0.0,0.0
1704779939321767964,3155,1704779939321527909,imu_link,0.0035827448065430126,0.0001843087499727762,-0.021641218546850662,0.9997593648622368,0.0,0.0,0.0,0.0,0.0,0.0,0.0,0.0,0.0,0.0041887902047863905,0.0008726646259971648,0.008552113334772213,0.0,0.0,0.0,0.0,0.0,0.0,0.0,0.0,0.0,0.02157463,-0.01569064,9.766442735,0.0,0.0,0.0,0.0,0.0,0.0,0.0,0.0,0.0
1704779939422194035,3156,1704779939421805046,imu_link,0.00383885173305736,-8.141791595385219e-05,-0.02120399955299878,0.9997677965365012,0.0,0.0,0.0,0.0,0.0,0.0,0.0,0.0,0.0,-0.0019198621771937623,-0.007504915783575617,0.009075712110370514,0.0,0.0,0.0,0.0,0.0,0.0,0.0,0.0,0.0,0.075511205,0.19809432999999999,9.858625245,0.0,0.0,0.0,0.0,0.0,0.0,0.0,0.0,0.0
1704779939521824456,3157,1704779939521468967,imu_link,0.00357349927777912,-0.00024911198321545056,-0.020854430121508907,0.9997761053308077,0.0,0.0,0.0,0.0,0.0,0.0,0.0,0.0,0.0,-0.02181661564992912,0.00471238898038469,0.0036651914291880917,0.0,0.0,0.0,0.0,0.0,0.0,0.0,0.0,0.0,0.042168594999999996,0.16867437999999998,9.903735834999999,0.0,0.0,0.0,0.0,0.0,0.0,0.0,0.0,0.0
1704779939622205332,3158,1704779939621707067,imu_link,0.0029772889486824024,0.00046186385705114486,-0.020769404906197598,0.9997797528716693,0.0,0.0,0.0,0.0,0.0,0.0,0.0,0.0,0.0,-0.006283185307179587,0.0005235987755982988,0.0027925268031909274,0.0,0.0,0.0,0.0,0.0,0.0,0.0,0.0,0.0,-0.13140911,-0.177500365,9.74977143,0.0,0.0,0.0,0.0,0.0,0.0,0.0,0.0,0.0
1704779939721429373,3159,1704779939721175567,imu_link,0.00279373058661031,2.949611447620137e-05,-0.020680866424305007,0.9997822242685297,0.0,0.0,0.0,0.0,0.0,0.0,0.0,0.0,0.0,-0.00715584993317675,0.010471975511965976,-0.0010471975511965976,0.0,0.0,0.0,0.0,0.0,0.0,0.0,0.0,0.0,0.14611908499999998,0.12062179499999999,10.013570314999999,0.0,0.0,0.0,0.0,0.0,0.0,0.0,0.0,0.0
1704779939821894172,3160,1704779939821445961,imu_link,0.0026318118964095095,0.0006440678613438025,-0.020595153013276638,0.9997842259283208,0.0,0.0,0.0,0.0,0.0,0.0,0.0,0.0,0.0,-0.0012217304763960308,-0.011344640137963142,0.004537856055185257,0.0,0.0,0.0,0.0,0.0,0.0,0.0,0.0,0.0,-0.10787314999999999,-0.026477955,9.67524089,0.0,0.0,0.0,0.0,0.0,0.0,0.0,0.0,0.0
1704779939921718429,3161,1704779939921368287,imu_link,0.002444734239929954,3.7141901944048835e-05,-0.020506310409552905,0.9997867338229499,0.0,0.0,0.0,0.0,0.0,0.0,0.0,0.0,0.0,0.016057029118347832,0.01117010721276371,0.0008726646259971648,0.0,0.0,0.0,0.0,0.0,0.0,0.0,0.0,0.0,-0.010787315,0.014709975,9.92629113,0.0,0.0,0.0,0.0,0.0,0.0,0.0,0.0,0.0
1704779940021704337,3162,1704779940021418084,imu_link,0.0028061952533728757,0.0006409630739278623,-0.020420780138179634,0.999787330472379,0.0,0.0,0.0,0.0,0.0,0.0,0.0,0.0,0.0,0.002617993877991494,-0.004014257279586958,0.004014257279586958,0.0,0.0,0.0,0.0,0.0,0.0,0.0,0.0,0.0,-0.026477955,0.15102241,9.633072295,0.0,0.0,0.0,0.0,0.0,0.0,0.0,0.0,0.0
1704779940122366944,3163,1704779940122001278,imu_link,0.002280778032021199,0.0005650043637494146,-0.020158515950078327,0.9997940353174388,0.0,0.0,0.0,0.0,0.0,0.0,0.0,0.0,0.0,-0.011344640137963142,0.007504915783575617,0.004363323129985824,0.0,0.0,0.0,0.0,0.0,0.0,0.0,0.0,0.0,0.03530394,0.14611908499999998,10.12438546,0.0,0.0,0.0,0.0,0.0,0.0,0.0,0.0,0.0
1704779940221384193,3164,1704779940221136361,imu_link,0.0020241639445559407,0.0008323806974472424,-0.019984401961754807,0.9997978963675265,0.0,0.0,0.0,0.0,0.0,0.0,0.0,0.0,0.0,0.0027925268031909274,-0.006108652381980153,0.0017453292519943296,0.0,0.0,0.0,0.0,0.0,0.0,0.0,0.0,0.0,-0.16279038999999998,-0.16965504499999998,9.501663185,0.0,0.0,0.0,0.0,0.0,0.0,0.0,0.0,0.0
1704779940321648633,3165,1704779940321117442,imu_link,0.002282366116070744,0.0006528503395810784,-0.019896982406182886,0.9997992171843676,0.0,0.0,0.0,0.0,0.0,0.0,0.0,0.0,0.0,0.009075712110370514,0.00471238898038469,0.0012217304763960308,0.0,0.0,0.0,0.0,0.0,0.0,0.0,0.0,0.0,-0.00392266,0.14611908499999998,9.902755169999999,0.0,0.0,0.0,0.0,0.0,0.0,0.0,0.0,0.0
1704779940422133498,3166,1704779940421767940,imu_link,0.002285766003121145,0.0008275476938617802,-0.019810131860402806,0.9998008047177531,0.0,0.0,0.0,0.0,0.0,0.0,0.0,0.0,0.0,-0.013439035240356337,-0.0036651914291880917,0.0013962634015954637,0.0,0.0,0.0,0.0,0.0,0.0,0.0,0.0,0.0,-0.0196133,0.08433718999999999,9.974343714999998,0.0,0.0,0.0,0.0,0.0,0.0,0.0,0.0,0.0
1704779940522077309,3167,1704779940521718467,imu_link,0.0022821950934060866,0.0006534479392516018,-0.01963519109620483,0.9998043927998926,0.0,0.0,0.0,0.0,0.0,0.0,0.0,0.0,0.0,0.015009831567151233,0.0041887902047863905,0.0038397243543875246,0.0,0.0,0.0,0.0,0.0,0.0,0.0,0.0,0.0,0.032361944999999996,-0.19319100499999997,9.64385961,0.0,0.0,0.0,0.0,0.0,0.0,0.0,0.0,0.0
1704779940621086409,3168,1704779940620784079,imu_link,0.0028927723057892694,0.0006422106657443495,-0.01937385395214298,0.9998079181607277,0.0,0.0,0.0,0.0,0.0,0.0,0.0,0.0,0.0,0.005061454830783556,-0.005759586531581288,0.004363323129985824,0.0,0.0,0.0,0.0,0.0,0.0,0.0,0.0,0.0,-0.0029419949999999998,0.277528195,10.02828029,0.0,0.0,0.0,0.0,0.0,0.0,0.0,0.0,0.0
1704779940720931697,3169,1704779940720519233,imu_link,0.0027164850671086544,0.0005588163986149446,-0.019199017375130554,0.9998118353795089,0.0,0.0,0.0,0.0,0.0,0.0,0.0,0.0,0.0,-0.012740903539558606,0.00471238898038469,0.0024434609527920616,0.0,0.0,0.0,0.0,0.0,0.0,0.0,0.0,0.0,0.069627215,-0.0196133,9.582077714999999,0.0,0.0,0.0,0.0,0.0,0.0,0.0,0.0,0.0
1704779940821831042,3170,1704779940821485000,imu_link,0.0024480152713677416,0.00021505581614013038,-0.019110775645340968,0.999814352380711,0.0,0.0,0.0,0.0,0.0,0.0,0.0,0.0,0.0,0.006108652381980153,-0.007679448708775049,0.0017453292519943296,0.0,0.0,0.0,0.0,0.0,0.0,0.0,0.0,0.0,0.038245934999999995,-0.047071919999999996,9.97728571,0.0,0.0,0.0,0.0,0.0,0.0,0.0,0.0,0.0
1704779940921859368,3171,1704779940921435302,imu_link,0.0025436032207335193,0.0006496392758009076,-0.019111894372696288,0.9998139044567013,0.0,0.0,0.0,0.0,0.0,0.0,0.0,0.0,0.0,0.004014257279586958,0.006108652381980153,-0.0013962634015954637,0.0,0.0,0.0,0.0,0.0,0.0,0.0,0.0,0.0,-0.012748645,0.155925735,9.800766009999998,0.0,0.0,0.0,0.0,0.0,0.0,0.0,0.0,0.0
1704779941021785592,3172,1704779941021427477,imu_link,0.002097334567367283,0.000134659416915819,-0.019023271895316298,0.9998168323152751,0.0,0.0,0.0,0.0,0.0,0.0,0.0,0.0,0.0,-0.0020943951023931952,-0.016057029118347832,0.005934119456780722,0.0,0.0,0.0,0.0,0.0,0.0,0.0,0.0,0.0,0.2745862,-0.069627215,9.829205295,0.0,0.0,0.0,0.0,0.0,0.0,0.0,0.0,0.0
1704779941121482197,3173,1704779941121165474,imu_link,0.0020956662237289155,4.777468065162937e-05,-0.018848598650932077,0.9998201519421155,0.0,0.0,0.0,0.0,0.0,0.0,0.0,0.0,0.0,0.012566370614359173,0.0054105206811824215,0.0013962634015954637,0.0,0.0,0.0,0.0,0.0,0.0,0.0,0.0,0.0,0.37755602499999996,-0.011767979999999999,9.668376235,0.0,0.0,0.0,0.0,0.0,0.0,0.0,0.0,0.0
1704779941221638216,3174,1704779941221163301,imu_link,0.002095662046874217,4.795755081888646e-05,-0.018761353073087485,0.9998217928868752,0.0,0.0,0.0,0.0,0.0,0.0,0.0,0.0,0.0,-0.00017453292519943296,-0.009250245035569947,0.005061454830783556,0.0,0.0,0.0,0.0,0.0,0.0,0.0,0.0,0.0,0.36578804499999995,0.152003075,10.071429549999998,0.0,0.0,0.0,0.0,0.0,0.0,0.0,0.0,0.0
1704779941321543212,3175,1704779941321038691,imu_link,0.001833895410301404,5.33494533939354e-05,-0.018499542557864367,0.9998271855208828,0.0,0.0,0.0,0.0,0.0,0.0,0.0,0.0,0.0,0.0020943951023931952,0.00715584993317675,0.003490658503988659,0.0,0.0,0.0,0.0,0.0,0.0,0.0,0.0,0.0,0.477583855,-0.148080415,9.781152709999999,0.0,0.0,0.0,0.0,0.0,0.0,0.0,0.0,0.0
1704779941421172407,3176,1704779941420817780,imu_link,0.0021780951554399596,-0.00021448194114031153,-0.018324496384272367,0.9998296968640477,0.0,0.0,0.0,0.0,0.0,0.0,0.0,0.0,0.0,0.01308996938995747,-0.007853981633974483,0.0027925268031909274,0.0,0.0,0.0,0.0,0.0,0.0,0.0,0.0,0.0,0.59428299,-0.0029419949999999998,9.939039775,0.0,0.0,0.0,0.0,0.0,0.0,0.0,0.0,0.0
1704779941522059687,3177,1704779941521582042,imu_link,0.002439869050164317,-0.0002190663714198686,-0.018237193249049762,0.9998306875823224,0.0,0.0,0.0,0.0,0.0,0.0,0.0,0.0,0.0,-0.002967059728390361,0.0020943951023931952,0.0017453292519943296,0.0,0.0,0.0,0.0,0.0,0.0,0.0,0.0,0.0,0.399130655,0.19417167,9.811553324999998,0.0,0.0,0.0,0.0,0.0,0.0,0.0,0.0,0.0
1704779941620712528,3178,1704779941620454736,imu_link,0.0024414835780296037,-0.0001313885953105372,-0.018062913524633323,0.9998338627241912,0.0,0.0,0.0,0.0,0.0,0.0,0.0,0.0,0.0,-0.00017453292519943296,0.011519173063162576,0.0041887902047863905,0.0,0.0,0.0,0.0,0.0,0.0,0.0,0.0,0.0,0.4148212949999999,-0.04412992499999999,9.524218479999998,0.0,0.0,0.0,0.0,0.0,0.0,0.0,0.0,0.0
1704779941720734417,3179,1704779941720392856,imu_link,0.0027141488489384018,0.0004753563767403325,-0.01780278787381895,0.9998377209208805,0.0,0.0,0.0,0.0,0.0,0.0,0.0,0.0,0.0,-0.005585053606381855,-0.00890117918517108,0.005235987755982988,0.0,0.0,0.0,0.0,0.0,0.0,0.0,0.0,0.0,0.10983448,0.18240368999999998,10.22441329,0.0,0.0,0.0,0.0,0.0,0.0,0.0,0.0,0.0
1704779941821596670,3180,1704779941821135263,imu_link,0.002443078919580617,-4.307056186184499e-05,-0.017626831976914992,0.9998416496149661,0.0,0.0,0.0,0.0,0.0,0.0,0.0,0.0,0.0,-0.01815142422074103,0.010122909661567111,0.0006981317007977319,0.0,0.0,0.0,0.0,0.0,0.0,0.0,0.0,0.0,0.20397832,0.12454445499999998,9.53794779,0.0,0.0,0.0,0.0,0.0,0.0,0.0,0.0,0.0
1704779941921836122,3181,1704779941921210766,imu_link,0.0018430772197418714,0.0005784663456633349,-0.01762797100404062,0.9998427491767541,0.0,0.0,0.0,0.0,0.0,0.0,0.0,0.0,0.0,-0.005585053606381855,-0.0020943951023931952,-0.0019198621771937623,0.0,0.0,0.0,0.0,0.0,0.0,0.0,0.0,0.0,-0.13337043999999998,-0.15298373999999998,9.827243965,0.0,0.0,0.0,0.0,0.0,0.0,0.0,0.0,0.0
1704779942021793013,3182,1704779942021382230,imu_link,0.0019287919065642122,0.000489675245714693,-0.01762785477672694,0.9998426369763922,0.0,0.0,0.0,0.0,0.0,0.0,0.0,0.0,0.0,0.00034906585039886593,0.01937315469713706,0.002617993877991494,0.0,0.0,0.0,0.0,0.0,0.0,0.0,0.0,0.0,-0.106892485,0.0784532,9.984150365,0.0,0.0,0.0,0.0,0.0,0.0,0.0,0.0,0.0
1704779942121847350,3183,1704779942121419636,imu_link,0.0019361591371122398,0.0009266147686769154,-0.017279695817084783,0.999848390900008,0.0,0.0,0.0,0.0,0.0,0.0,0.0,0.0,0.0,-0.00890117918517108,-0.011344640137963142,0.007853981633974483,0.0,0.0,0.0,0.0,0.0,0.0,0.0,0.0,0.0,-0.287334845,0.161809725,9.781152709999999,0.0,0.0,0.0,0.0,0.0,0.0,0.0,0.0,0.0
1704779942221082363,3184,1704779942220623003,imu_link,0.001399030609528473,0.00015074846435851881,-0.017016374661670757,0.9998542208650358,0.0,0.0,0.0,0.0,0.0,0.0,0.0,0.0,0.0,-0.0027925268031909274,0.0015707963267948967,0.005235987755982988,0.0,0.0,0.0,0.0,0.0,0.0,0.0,0.0,0.0,-0.06668521999999999,-0.034323275,9.954730414999998,0.0,0.0,0.0,0.0,0.0,0.0,0.0,0.0,0.0
1704779942320900300,3185,1704779942320517848,imu_link,0.0015838660382626762,0.0007586927461352424,-0.016930106635399348,0.9998551331282964,0.0,0.0,0.0,0.0,0.0,0.0,0.0,0.0,0.0,0.010995574287564275,-0.0019198621771937623,-0.0006981317007977319,0.0,0.0,0.0,0.0,0.0,0.0,0.0,0.0,0.0,-0.10100849499999999,-0.04314926,9.769384729999999,0.0,0.0,0.0,0.0,0.0,0.0,0.0,0.0,0.0
1704779942421629477,3186,1704779942421179970,imu_link,0.0018352866503976775,0.0001434838060479078,-0.016929190336064732,0.9998549963119021,0.0,0.0,0.0,0.0,0.0,0.0,0.0,0.0,0.0,-0.002617993877991494,-0.0008726646259971648,0.0012217304763960308,0.0,0.0,0.0,0.0,0.0,0.0,0.0,0.0,0.0,0.09904716499999999,0.09218251,9.703680175,0.0,0.0,0.0,0.0,0.0,0.0,0.0,0.0,0.0
1704779942521444709,3187,1704779942521013688,imu_link,0.0016651039490709128,0.0004086360155376113,-0.01666779182864527,0.999859612726208,0.0,0.0,0.0,0.0,0.0,0.0,0.0,0.0,0.0,0.0036651914291880917,0.004014257279586958,0.008552113334772213,0.0,0.0,0.0,0.0,0.0,0.0,0.0,0.0,0.0,-0.05687856999999999,0.00392266,9.556580425,0.0,0.0,0.0,0.0,0.0,0.0,0.0,0.0,0.0
1704779942620206932,3188,1704779942619912284,imu_link,0.0021012344926663144,0.0004020967321568113,-0.016318972023231047,0.9998645479683385,0.0,0.0,0.0,0.0,0.0,0.0,0.0,0.0,0.0,0.015184364492350668,-0.010297442586766544,0.005061454830783556,0.0,0.0,0.0,0.0,0.0,0.0,0.0,0.0,0.0,-0.106892485,0.059820565,10.298943829999999,0.0,0.0,0.0,0.0,0.0,0.0,0.0,0.0,0.0
1704779942721034408,3189,1704779942720564030,imu_link,0.002537473010563012,0.0003951976237965676,-0.01623189656361532,0.9998649561733359,0.0,0.0,0.0,0.0,0.0,0.0,0.0,0.0,0.0,-0.0041887902047863905,0.01117010721276371,-0.0019198621771937623,0.0,0.0,0.0,0.0,0.0,0.0,0.0,0.0,0.0,0.10002783,0.287334845,9.546773775,0.0,0.0,0.0,0.0,0.0,0.0,0.0,0.0,0.0
1704779942821390637,3190,1704779942820712042,imu_link,0.002021099506268959,0.0008397940733789393,-0.016319807869195044,0.9998644276969816,0.0,0.0,0.0,0.0,0.0,0.0,0.0,0.0,0.0,-0.01291543646475804,0.0015707963267948967,0.0017453292519943296,0.0,0.0,0.0,0.0,0.0,0.0,0.0,0.0,0.0,0.0392266,-0.132389775,9.864509235,0.0,0.0,0.0,0.0,0.0,0.0,0.0,0.0,0.0
1704779942921300861,3191,1704779942920942090,imu_link,0.0022884552436982075,0.0011847395412938942,-0.01623356375181651,0.9998649062612073,0.0,0.0,0.0,0.0,0.0,0.0,0.0,0.0,0.0,0.015707963267948967,0.026354471705114374,-0.0008726646259971648,0.0,0.0,0.0,0.0,0.0,0.0,0.0,0.0,0.0,-0.07256921,-0.16671305,9.826263299999999,0.0,0.0,0.0,0.0,0.0,0.0,0.0,0.0,0.0
1704779943021337974,3192,1704779943020895434,imu_link,0.0029050346046614575,0.001523587433382121,-0.016322530798536503,0.9998613976164942,0.0,0.0,0.0,0.0,0.0,0.0,0.0,0.0,0.0,-0.011344640137963142,-0.012566370614359173,-0.0012217304763960308,0.0,0.0,0.0,0.0,0.0,0.0,0.0,0.0,0.0,-0.11375713999999998,0.49131316499999994,9.507547175,0.0,0.0,0.0,0.0,0.0,0.0,0.0,0.0,0.0
1704779943121528802,3193,1704779943121112350,imu_link,0.002025178759018732,0.0011019114519967626,-0.01614583003665909,0.999866989461385,0.0,0.0,0.0,0.0,0.0,0.0,0.0,0.0,0.0,-0.021642082724729686,-0.009773843811168246,0.004886921905584123,0.0,0.0,0.0,0.0,0.0,0.0,0.0,0.0,0.0,-0.06472388999999999,-0.179461695,10.212645310000001,0.0,0.0,0.0,0.0,0.0,0.0,0.0,0.0,0.0
1704779943220151037,3194,1704779943219894670,imu_link,0.002464159105395975,0.0012695909201194374,-0.016059482714841457,0.9998671957183766,0.0,0.0,0.0,0.0,0.0,0.0,0.0,0.0,0.0,0.021118483949131385,0.011693705988362009,-0.0038397243543875246,0.0,0.0,0.0,0.0,0.0,0.0,0.0,0.0,0.0,0.04511059,-0.19024901,9.458513925,0.0,0.0,0.0,0.0,0.0,0.0,0.0,0.0,0.0
1704779943320971505,3195,1704779943320535093,imu_link,0.0033397578472084554,0.001429502316449934,-0.016235657801894544,0.999861593400001,0.0,0.0,0.0,0.0,0.0,0.0,0.0,0.0,0.0,0.010122909661567111,-0.011868238913561443,-0.0010471975511965976,0.0,0.0,0.0,0.0,0.0,0.0,0.0,0.0,0.0,-0.13337043999999998,0.35696205999999997,9.976305045,0.0,0.0,0.0,0.0,0.0,0.0,0.0,0.0,0.0
1704779943421024894,3196,1704779943420581091,imu_link,0.0031496304485730394,0.00047281139330736005,-0.016145159064857573,0.9998645858896066,0.0,0.0,0.0,0.0,0.0,0.0,0.0,0.0,0.0,0.013962634015954637,-0.010297442586766544,0.0031415926535897933,0.0,0.0,0.0,0.0,0.0,0.0,0.0,0.0,0.0,-0.04903325,-0.197113665,9.73604212,0.0,0.0,0.0,0.0,0.0,0.0,0.0,0.0,0.0
1704779943523586190,3197,1704779943522671830,imu_link,0.003840616674827556,2.627304741899524e-05,-0.015882064089820742,0.9998664955950524,0.0,0.0,0.0,0.0,0.0,0.0,0.0,0.0,0.0,0.024609142453120045,-0.005235987755982988,0.006981317007977318,0.0,0.0,0.0,0.0,0.0,0.0,0.0,0.0,0.0,0.07747253500000001,0.083356525,9.83018596,0.0,0.0,0.0,0.0,0.0,0.0,0.0,0.0,0.0
