%time,field.header.seq,field.header.stamp,field.header.frame_id,field.orientation.x,field.orientation.y,field.orientation.z,field.orientation.w,field.orientation_covariance0,field.orientation_covariance1,field.orientation_covariance2,field.orientation_covariance3,field.orientation_covariance4,field.orientation_covariance5,field.orientation_covariance6,field.orientation_covariance7,field.orientation_covariance8,field.angular_velocity.x,field.angular_velocity.y,field.angular_velocity.z,field.angular_velocity_covariance0,field.angular_velocity_covariance1,field.angular_velocity_covariance2,field.angular_velocity_covariance3,field.angular_velocity_covariance4,field.angular_velocity_covariance5,field.angular_velocity_covariance6,field.angular_velocity_covariance7,field.angular_velocity_covariance8,field.linear_acceleration.x,field.linear_acceleration.y,field.linear_acceleration.z,field.linear_acceleration_covariance0,field.linear_acceleration_covariance1,field.linear_acceleration_covariance2,field.linear_acceleration_covariance3,field.linear_acceleration_covariance4,field.linear_acceleration_covariance5,field.linear_acceleration_covariance6,field.linear_acceleration_covariance7,field.linear_acceleration_covariance8
1704781114553735791,14911,1704781114553527214,imu_link,0.011783553805783142,0.004629907188919114,-0.8685574737447928,-0.49542671165490443,0.0,0.0,0.0,0.0,0.0,0.0,0.0,0.0,0.0,0.0,-0.0,-0.0005235987755982988,0.0,0.0,0.0,0.0,0.0,0.0,0.0,0.0,0.0,-0.15298373999999998,-0.19417167,9.823321305,0.0,0.0,0.0,0.0,0.0,0.0,0.0,0.0,0.0
1704781114653601272,14912,1704781114653358653,imu_link,0.011783553805783142,0.004629907188919114,-0.8685574737447928,-0.49542671165490443,0.0,0.0,0.0,0.0,0.0,0.0,0.0,0.0,0.0,0.0,0.00017453292519943296,0.00017453292519943296,0.0,0.0,0.0,0.0,0.0,0.0,0.0,0.0,0.0,-0.152003075,-0.19417167,9.82037931,0.0,0.0,0.0,0.0,0.0,0.0,0.0,0.0,0.0
1704781114752953378,14913,1704781114752835356,imu_link,0.011783553805783142,0.004629907188919114,-0.8685574737447928,-0.49542671165490443,0.0,0.0,0.0,0.0,0.0,0.0,0.0,0.0,0.0,-0.00034906585039886593,0.00034906585039886593,0.00034906585039886593,0.0,0.0,0.0,0.0,0.0,0.0,0.0,0.0,0.0,-0.15298373999999998,-0.19319100499999997,9.821359975,0.0,0.0,0.0,0.0,0.0,0.0,0.0,0.0,0.0
1704781114854017069,14914,1704781114853821382,imu_link,0.011783553805783142,0.004629907188919114,-0.8685574737447928,-0.49542671165490443,0.0,0.0,0.0,0.0,0.0,0.0,0.0,0.0,0.0,0.00034906585039886593,-0.00017453292519943296,-0.0,0.0,0.0,0.0,0.0,0.0,0.0,0.0,0.0,0.0,-0.15102241,-0.19319100499999997,9.821359975,0.0,0.0,0.0,0.0,0.0,0.0,0.0,0.0,0.0
1704781114953819736,14915,1704781114953463302,imu_link,0.011783553805783142,0.004629907188919114,-0.8685574737447928,-0.49542671165490443,0.0,0.0,0.0,0.0,0.0,0.0,0.0,0.0,0.0,0.00017453292519943296,0.00034906585039886593,-0.0006981317007977319,0.0,0.0,0.0,0.0,0.0,0.0,0.0,0.0,0.0,-0.15396440499999997,-0.19417167,9.823321305,0.0,0.0,0.0,0.0,0.0,0.0,0.0,0.0,0.0
1704781115053489188,14916,1704781115053192725,imu_link,0.011783553805783142,0.004629907188919114,-0.8685574737447928,-0.49542671165490443,0.0,0.0,0.0,0.0,0.0,0.0,0.0,0.0,0.0,-0.00017453292519943296,0.0,-0.0,0.0,0.0,0.0,0.0,0.0,0.0,0.0,0.0,0.0,-0.15396440499999997,-0.195152335,9.82234064,0.0,0.0,0.0,0.0,0.0,0.0,0.0,0.0,0.0
1704781115153078479,14917,1704781115152739650,imu_link,0.011783553805783142,0.004629907188919114,-0.8685574737447928,-0.49542671165490443,0.0,0.0,0.0,0.0,0.0,0.0,0.0,0.0,0.0,0.0,0.00034906585039886593,-0.0,0.0,0.0,0.0,0.0,0.0,0.0,0.0,0.0,0.0,-0.15298373999999998,-0.19417167,9.82234064,0.0,0.0,0.0,0.0,0.0,0.0,0.0,0.0,0.0
1704781115253926641,14918,1704781115253617144,imu_link,0.011783553805783142,0.004629907188919114,-0.8685574737447928,-0.49542671165490443,0.0,0.0,0.0,0.0,0.0,0.0,0.0,0.0,0.0,0.00017453292519943296,0.00034906585039886593,-0.0,0.0,0.0,0.0,0.0,0.0,0.0,0.0,0.0,0.0,-0.152003075,-0.19221033999999998,9.821359975,0.0,0.0,0.0,0.0,0.0,0.0,0.0,0.0,0.0
1704781115353407881,14919,1704781115353158938,imu_link,0.011783553805783142,0.004629907188919114,-0.8685574737447928,-0.49542671165490443,0.0,0.0,0.0,0.0,0.0,0.0,0.0,0.0,0.0,-0.00017453292519943296,-0.0006981317007977319,0.00017453292519943296,0.0,0.0,0.0,0.0,0.0,0.0,0.0,0.0,0.0,-0.15298373999999998,-0.19319100499999997,9.82234064,0.0,0.0,0.0,0.0,0.0,0.0,0.0,0.0,0.0
1704781115454262104,14920,1704781115453947598,imu_link,0.011783553805783142,0.004629907188919114,-0.8685574737447928,-0.49542671165490443,0.0,0.0,0.0,0.0,0.0,0.0,0.0,0.0,0.0,0.00017453292519943296,-0.00034906585039886593,-0.0,0.0,0.0,0.0,0.0,0.0,0.0,0.0,0.0,0.0,-0.152003075,-0.19417167,9.823321305,0.0,0.0,0.0,0.0,0.0,0.0,0.0,0.0,0.0
1704781115553437879,14921,1704781115553256187,imu_link,0.011783553805783142,0.004629907188919114,-0.8685574737447928,-0.49542671165490443,0.0,0.0,0.0,0.0,0.0,0.0,0.0,0.0,0.0,0.0,0.00034906585039886593,0.00017453292519943296,0.0,0.0,0.0,0.0,0.0,0.0,0.0,0.0,0.0,-0.15298373999999998,-0.19417167,9.821359975,0.0,0.0,0.0,0.0,0.0,0.0,0.0,0.0,0.0
1704781115653721056,14922,1704781115653335718,imu_link,0.011783553805783142,0.004629907188919114,-0.8685574737447928,-0.49542671165490443,0.0,0.0,0.0,0.0,0.0,0.0,0.0,0.0,0.0,-0.0,0.00017453292519943296,0.00017453292519943296,0.0,0.0,0.0,0.0,0.0,0.0,0.0,0.0,0.0,-0.15298373999999998,-0.19319100499999997,9.82234064,0.0,0.0,0.0,0.0,0.0,0.0,0.0,0.0,0.0
1704781115752821464,14923,1704781115752611520,imu_link,0.011783553805783142,0.004629907188919114,-0.8685574737447928,-0.49542671165490443,0.0,0.0,0.0,0.0,0.0,0.0,0.0,0.0,0.0,-0.0,-0.00034906585039886593,-0.00017453292519943296,0.0,0.0,0.0,0.0,0.0,0.0,0.0,0.0,0.0,-0.15298373999999998,-0.19221033999999998,9.82037931,0.0,0.0,0.0,0.0,0.0,0.0,0.0,0.0,0.0
1704781115853922885,14924,1704781115853609982,imu_link,0.011783553805783142,0.004629907188919114,-0.8685574737447928,-0.49542671165490443,0.0,0.0,0.0,0.0,0.0,0.0,0.0,0.0,0.0,0.00034906585039886593,-0.00034906585039886593,0.00017453292519943296,0.0,0.0,0.0,0.0,0.0,0.0,0.0,0.0,0.0,-0.15298373999999998,-0.19319100499999997,9.821359975,0.0,0.0,0.0,0.0,0.0,0.0,0.0,0.0,0.0
1704781115953176986,14925,1704781115952995353,imu_link,0.011783553805783142,0.004629907188919114,-0.8685574737447928,-0.49542671165490443,0.0,0.0,0.0,0.0,0.0,0.0,0.0,0.0,0.0,-0.00017453292519943296,-0.0005235987755982988,-0.00017453292519943296,0.0,0.0,0.0,0.0,0.0,0.0,0.0,0.0,0.0,-0.152003075,-0.19221033999999998,9.82234064,0.0,0.0,0.0,0.0,0.0,0.0,0.0,0.0,0.0
1704781116053606100,14926,1704781116053284700,imu_link,0.011783553805783142,0.004629907188919114,-0.8685574737447928,-0.49542671165490443,0.0,0.0,0.0,0.0,0.0,0.0,0.0,0.0,0.0,-0.00034906585039886593,-0.00017453292519943296,0.0005235987755982988,0.0,0.0,0.0,0.0,0.0,0.0,0.0,0.0,0.0,-0.155925735,-0.19221033999999998,9.814495319999999,0.0,0.0,0.0,0.0,0.0,0.0,0.0,0.0,0.0
1704781116152408088,14927,1704781116152244103,imu_link,0.011707765121623928,0.004673152878701696,-0.8685576459275341,-0.4954278005712329,0.0,0.0,0.0,0.0,0.0,0.0,0.0,0.0,0.0,-0.0010471975511965976,-0.002967059728390361,0.0019198621771937623,0.0,0.0,0.0,0.0,0.0,0.0,0.0,0.0,0.0,0.024516625,-0.18436502,9.838031280000001,0.0,0.0,0.0,0.0,0.0,0.0,0.0,0.0,0.0
1704781116253004393,14928,1704781116252873149,imu_link,0.011490639824786639,0.004998731066176714,-0.8686006380015505,-0.4953543272723522,0.0,0.0,0.0,0.0,0.0,0.0,0.0,0.0,0.0,-0.0022689280275926286,-0.0015707963267948967,-0.0010471975511965976,0.0,0.0,0.0,0.0,0.0,0.0,0.0,0.0,0.0,0.34421341499999997,-0.196133,9.805669335,0.0,0.0,0.0,0.0,0.0,0.0,0.0,0.0,0.0
1704781116353427700,14929,1704781116353103263,imu_link,0.011274387000408797,0.005322303037907039,-0.8685569803636062,-0.49543247082704595,0.0,0.0,0.0,0.0,0.0,0.0,0.0,0.0,0.0,-0.0041887902047863905,-0.017453292519943295,-0.0012217304763960308,0.0,0.0,0.0,0.0,0.0,0.0,0.0,0.0,0.0,0.487390505,-0.173577705,9.831166624999998,0.0,0.0,0.0,0.0,0.0,0.0,0.0,0.0,0.0
1704781116452888379,14930,1704781116452722857,imu_link,0.011177217805690299,0.005678452311604978,-0.8685125607224329,-0.4955085840314287,0.0,0.0,0.0,0.0,0.0,0.0,0.0,0.0,0.0,-0.006108652381980153,0.008028514559173916,-0.0015707963267948967,0.0,0.0,0.0,0.0,0.0,0.0,0.0,0.0,0.0,0.26576021499999997,-0.21182364,9.94002044,0.0,0.0,0.0,0.0,0.0,0.0,0.0,0.0,0.0
1704781116552914703,14931,1704781116552508994,imu_link,0.010885298452163657,0.006045346911186021,-0.8684685417372598,-0.4955878893507064,0.0,0.0,0.0,0.0,0.0,0.0,0.0,0.0,0.0,0.0041887902047863905,-0.013788101090755204,-0.0017453292519943296,0.0,0.0,0.0,0.0,0.0,0.0,0.0,0.0,0.0,0.5217137799999999,-0.277528195,9.847837929999999,0.0,0.0,0.0,0.0,0.0,0.0,0.0,0.0,0.0
1704781116653675919,14932,1704781116653305925,imu_link,0.010961472857312735,0.005298535402644645,-0.8684717133353782,-0.49558919961163217,0.0,0.0,0.0,0.0,0.0,0.0,0.0,0.0,0.0,0.02391101075232232,0.016755160819145562,-0.0012217304763960308,0.0,0.0,0.0,0.0,0.0,0.0,0.0,0.0,0.0,0.48052585,-0.34127141999999994,9.826263299999999,0.0,0.0,0.0,0.0,0.0,0.0,0.0,0.0,0.0
1704781116753041874,14933,1704781116752733055,imu_link,0.010692077991749066,0.0046471020770087225,-0.8683885730955333,-0.49574728443795624,0.0,0.0,0.0,0.0,0.0,0.0,0.0,0.0,0.0,0.009599310885968814,0.009075712110370514,-0.0010471975511965976,0.0,0.0,0.0,0.0,0.0,0.0,0.0,0.0,0.0,0.56290171,0.12356378999999999,9.811553324999998,0.0,0.0,0.0,0.0,0.0,0.0,0.0,0.0,0.0
1704781116852796171,14934,1704781116852511759,imu_link,0.01097383231422093,0.004786943767092313,-0.8683438237290562,-0.4958181763159877,0.0,0.0,0.0,0.0,0.0,0.0,0.0,0.0,0.0,-0.014486232791552934,-0.004363323129985824,-0.006806784082777885,0.0,0.0,0.0,0.0,0.0,0.0,0.0,0.0,0.0,0.39814998999999995,-0.22555294999999997,9.647782269999999,0.0,0.0,0.0,0.0,0.0,0.0,0.0,0.0,0.0
1704781116953245531,14935,1704781116952970300,imu_link,0.011125374599568708,0.004700386416056147,-0.8683435568431845,-0.49581609463236087,0.0,0.0,0.0,0.0,0.0,0.0,0.0,0.0,0.0,-0.005061454830783556,0.006806784082777885,0.007504915783575617,0.0,0.0,0.0,0.0,0.0,0.0,0.0,0.0,0.0,0.09610516999999999,-0.32950344,9.834108619999999,0.0,0.0,0.0,0.0,0.0,0.0,0.0,0.0,0.0
1704781117052220411,14936,1704781117052095107,imu_link,0.01037741829925871,0.004627165981698824,-0.8684762455356306,-0.4956005543426631,0.0,0.0,0.0,0.0,0.0,0.0,0.0,0.0,0.0,-0.0013962634015954637,-0.017627825445142728,-0.0022689280275926286,0.0,0.0,0.0,0.0,0.0,0.0,0.0,0.0,0.0,0.38245935,-0.15298373999999998,10.180283365,0.0,0.0,0.0,0.0,0.0,0.0,0.0,0.0,0.0
1704781117152462443,14937,1704781117152283415,imu_link,0.010920586511665706,0.0045144272454081666,-0.8682583608014274,-0.4959715512358602,0.0,0.0,0.0,0.0,0.0,0.0,0.0,0.0,0.0,-0.00017453292519943296,0.033510321638291124,-0.010821041362364843,0.0,0.0,0.0,0.0,0.0,0.0,0.0,0.0,0.0,0.29812215999999997,-0.21476563499999998,9.09076455,0.0,0.0,0.0,0.0,0.0,0.0,0.0,0.0,0.0
1704781117252574993,14938,1704781117252402666,imu_link,0.010358184997054341,0.0049356270021810485,-0.8682155954878893,-0.4960544600558206,0.0,0.0,0.0,0.0,0.0,0.0,0.0,0.0,0.0,0.022863813201125717,-0.03490658503988659,0.008726646259971648,0.0,0.0,0.0,0.0,0.0,0.0,0.0,0.0,0.0,0.267721545,-0.42462794499999995,10.172438045,0.0,0.0,0.0,0.0,0.0,0.0,0.0,0.0,0.0
1704781117352792557,14939,1704781117352568164,imu_link,0.009360076964306196,0.004605016295279936,-0.8684795741543937,-0.4956151854622144,0.0,0.0,0.0,0.0,0.0,0.0,0.0,0.0,0.0,0.02530727415391778,-0.005235987755982988,0.005585053606381855,0.0,0.0,0.0,0.0,0.0,0.0,0.0,0.0,0.0,0.261837555,0.07453053999999999,9.991015019999999,0.0,0.0,0.0,0.0,0.0,0.0,0.0,0.0,0.0
1704781117451977815,14940,1704781117451657403,imu_link,0.009339117772196738,0.004917270085811143,-0.8683919326938814,-0.49576612688476984,0.0,0.0,0.0,0.0,0.0,0.0,0.0,0.0,0.0,-0.015009831567151233,-0.01832595714594046,-0.005235987755982988,0.0,0.0,0.0,0.0,0.0,0.0,0.0,0.0,0.0,0.23339827,0.022555295,9.49087587,0.0,0.0,0.0,0.0,0.0,0.0,0.0,0.0,0.0
1704781117552779707,14941,1704781117552372859,imu_link,0.009196506529009213,0.005904608896219106,-0.8685174693652189,-0.49553805632754455,0.0,0.0,0.0,0.0,0.0,0.0,0.0,0.0,0.0,-0.012042771838760872,0.032637657012293965,0.012566370614359173,0.0,0.0,0.0,0.0,0.0,0.0,0.0,0.0,0.0,0.56290171,-0.39814998999999995,9.717409485,0.0,0.0,0.0,0.0,0.0,0.0,0.0,0.0,0.0
1704781117652274694,14942,1704781117652072622,imu_link,0.009248507958172485,0.00547572084439224,-0.8687356321747585,-0.49515945206741674,0.0,0.0,0.0,0.0,0.0,0.0,0.0,0.0,0.0,-0.0022689280275926286,-0.02199114857512855,-0.0022689280275926286,0.0,0.0,0.0,0.0,0.0,0.0,0.0,0.0,0.0,0.19221033999999998,-0.05491724,10.24010393,0.0,0.0,0.0,0.0,0.0,0.0,0.0,0.0,0.0
1704781117752927687,14943,1704781117752538793,imu_link,0.00877273803904792,0.0060473694812404446,-0.8686474363277349,-0.4953161614069437,0.0,0.0,0.0,0.0,0.0,0.0,0.0,0.0,0.0,-0.013962634015954637,0.0022689280275926286,0.007330382858376183,0.0,0.0,0.0,0.0,0.0,0.0,0.0,0.0,0.0,0.46091255,-0.267721545,9.472243234999999,0.0,0.0,0.0,0.0,0.0,0.0,0.0,0.0,0.0
1704781117852827528,14944,1704781117852576255,imu_link,0.009148173161247192,0.005836801979809826,-0.8689500637596711,-0.49478078920116136,0.0,0.0,0.0,0.0,0.0,0.0,0.0,0.0,0.0,0.009773843811168246,-0.0013962634015954637,0.010995574287564275,0.0,0.0,0.0,0.0,0.0,0.0,0.0,0.0,0.0,0.201036325,-0.434434595,10.052796914999998,0.0,0.0,0.0,0.0,0.0,0.0,0.0,0.0,0.0
1704781117953057600,14945,1704781117952838932,imu_link,0.008250001906023707,0.005144201440064139,-0.8690420288515791,-0.49464272636886725,0.0,0.0,0.0,0.0,0.0,0.0,0.0,0.0,0.0,-0.028448866807507567,0.021467549799530253,-0.0017453292519943296,0.0,0.0,0.0,0.0,0.0,0.0,0.0,0.0,0.0,0.61389629,0.20790097999999999,9.487933875,0.0,0.0,0.0,0.0,0.0,0.0,0.0,0.0,0.0
1704781118054440271,14946,1704781118051863170,imu_link,0.009233483159642187,0.005990073583519447,-0.869035368629465,-0.49462752640573376,0.0,0.0,0.0,0.0,0.0,0.0,0.0,0.0,0.0,-0.0439822971502571,-0.010122909661567111,0.0005235987755982988,0.0,0.0,0.0,0.0,0.0,0.0,0.0,0.0,0.0,0.281450855,-0.375594695,10.146940755,0.0,0.0,0.0,0.0,0.0,0.0,0.0,0.0,0.0
1704781118152290865,14947,1704781118152060239,imu_link,0.009177519758837765,0.006424540295725145,-0.8691193457887755,-0.49447554154756296,0.0,0.0,0.0,0.0,0.0,0.0,0.0,0.0,0.0,0.025132741228718346,-0.011868238913561443,-0.0019198621771937623,0.0,0.0,0.0,0.0,0.0,0.0,0.0,0.0,0.0,0.095124505,-0.84141057,10.105752825,0.0,0.0,0.0,0.0,0.0,0.0,0.0,0.0,0.0
1704781118252454957,14948,1704781118252228540,imu_link,0.008033756808384154,0.004765711102542883,-0.8690873508241557,-0.49457044330073113,0.0,0.0,0.0,0.0,0.0,0.0,0.0,0.0,0.0,0.04153883619746504,0.03316125578789226,0.0006981317007977319,0.0,0.0,0.0,0.0,0.0,0.0,0.0,0.0,0.0,0.626644935,0.5079844699999999,9.601691014999998,0.0,0.0,0.0,0.0,0.0,0.0,0.0,0.0,0.0
1704781118352538703,14949,1704781118352350160,imu_link,0.009116452969603495,0.004551095007919958,-0.869085332957248,-0.4945572382020821,0.0,0.0,0.0,0.0,0.0,0.0,0.0,0.0,0.0,-0.0038397243543875246,-0.00715584993317675,-0.0041887902047863905,0.0,0.0,0.0,0.0,0.0,0.0,0.0,0.0,0.0,0.277528195,-0.222610955,9.99297635,0.0,0.0,0.0,0.0,0.0,0.0,0.0,0.0,0.0
1704781118451758158,14950,1704781118451570654,imu_link,0.009452537444874703,0.004960506586098258,-0.8689532901020258,-0.49477896330697735,0.0,0.0,0.0,0.0,0.0,0.0,0.0,0.0,0.0,0.02199114857512855,0.005235987755982988,-0.0008726646259971648,0.0,0.0,0.0,0.0,0.0,0.0,0.0,0.0,0.0,0.20495898499999998,-0.25203090499999997,9.809591995,0.0,0.0,0.0,0.0,0.0,0.0,0.0,0.0,0.0
1704781118552147204,14951,1704781118551749338,imu_link,0.009170974068630936,0.0041190310080376265,-0.8691297515749544,-0.4944819529016658,0.0,0.0,0.0,0.0,0.0,0.0,0.0,0.0,0.0,-0.011344640137963142,0.009948376736367677,0.008377580409572781,0.0,0.0,0.0,0.0,0.0,0.0,0.0,0.0,0.0,0.03530394,0.11179581,9.732119459999998,0.0,0.0,0.0,0.0,0.0,0.0,0.0,0.0,0.0
1704781118652202216,14952,1704781118651974169,imu_link,0.009593252088193671,0.00468012639002717,-0.868997116049964,-0.49470200952511934,0.0,0.0,0.0,0.0,0.0,0.0,0.0,0.0,0.0,-0.005585053606381855,-0.0017453292519943296,-0.009599310885968814,0.0,0.0,0.0,0.0,0.0,0.0,0.0,0.0,0.0,-0.22555294999999997,-0.24124358999999998,9.90863916,0.0,0.0,0.0,0.0,0.0,0.0,0.0,0.0,0.0
1704781118752025070,14953,1704781118751709486,imu_link,0.00951907011312477,0.004719983182597287,-0.8688244623911242,-0.49500622482319495,0.0,0.0,0.0,0.0,0.0,0.0,0.0,0.0,0.0,0.01064650843716541,0.021118483949131385,-0.006981317007977318,0.0,0.0,0.0,0.0,0.0,0.0,0.0,0.0,0.0,-0.10885381499999999,-0.41580195999999997,9.338872795,0.0,0.0,0.0,0.0,0.0,0.0,0.0,0.0,0.0
1704781118852410862,14954,1704781118852234938,imu_link,0.009293977732649068,0.003440861590974536,-0.8687424841094621,-0.495164900566203,0.0,0.0,0.0,0.0,0.0,0.0,0.0,0.0,0.0,0.029845130209103034,-0.023561944901923447,-0.00715584993317675,0.0,0.0,0.0,0.0,0.0,0.0,0.0,0.0,0.0,-0.38147868499999993,0.12160245999999998,10.292079175,0.0,0.0,0.0,0.0,0.0,0.0,0.0,0.0,0.0
1704781118952843774,14955,1704781118952487552,imu_link,0.008590084543468261,0.004142952042362168,-0.8686995195393905,-0.49524760589824457,0.0,0.0,0.0,0.0,0.0,0.0,0.0,0.0,0.0,-0.024260076602721177,-0.008203047484373348,0.00942477796076938,0.0,0.0,0.0,0.0,0.0,0.0,0.0,0.0,0.0,-0.230456275,0.07256921,9.519315155,0.0,0.0,0.0,0.0,0.0,0.0,0.0,0.0,0.0
1704781119052765287,14956,1704781119052252880,imu_link,0.00889016404549084,0.004678264365510225,-0.8689560002060983,-0.4947873770940301,0.0,0.0,0.0,0.0,0.0,0.0,0.0,0.0,0.0,-0.0012217304763960308,-0.014835298641951801,-0.0019198621771937623,0.0,0.0,0.0,0.0,0.0,0.0,0.0,0.0,0.0,-0.051975244999999996,-0.50013915,9.425171314999998,0.0,0.0,0.0,0.0,0.0,0.0,0.0,0.0,0.0
1704781119151873344,14957,1704781119151663045,imu_link,0.008331232903078425,0.004389478749260018,-0.8685696912925583,-0.49547756195671905,0.0,0.0,0.0,0.0,0.0,0.0,0.0,0.0,0.0,-0.0143116998663535,-0.006632251157578452,-0.012042771838760872,0.0,0.0,0.0,0.0,0.0,0.0,0.0,0.0,0.0,-0.102969825,0.28537351499999997,10.443101584999999,0.0,0.0,0.0,0.0,0.0,0.0,0.0,0.0,0.0
1704781119251693675,14958,1704781119251511426,imu_link,0.008286176737010455,0.005019407972121387,-0.868696969238985,-0.49524914987680113,0.0,0.0,0.0,0.0,0.0,0.0,0.0,0.0,0.0,-0.027925268031909273,0.014660765716752367,0.011868238913561443,0.0,0.0,0.0,0.0,0.0,0.0,0.0,0.0,0.0,0.26281822,-0.29223816999999996,9.935117114999999,0.0,0.0,0.0,0.0,0.0,0.0,0.0,0.0,0.0
1704781119352322890,14959,1704781119352145297,imu_link,0.00797064243534297,0.00570241069648975,-0.8687807610813401,-0.4950999298589568,0.0,0.0,0.0,0.0,0.0,0.0,0.0,0.0,0.0,-0.01064650843716541,-0.03298672286269282,-0.0020943951023931952,0.0,0.0,0.0,0.0,0.0,0.0,0.0,0.0,0.0,0.328522775,-0.36382671499999997,9.84195394,0.0,0.0,0.0,0.0,0.0,0.0,0.0,0.0,0.0
1704781119451358289,14960,1704781119451171937,imu_link,0.008013848185499628,0.00577822638107745,-0.8687802601421794,-0.4950992324013801,0.0,0.0,0.0,0.0,0.0,0.0,0.0,0.0,0.0,-0.002967059728390361,0.0017453292519943296,0.004014257279586958,0.0,0.0,0.0,0.0,0.0,0.0,0.0,0.0,0.0,0.12160245999999998,-0.134351105,10.206761319999998,0.0,0.0,0.0,0.0,0.0,0.0,0.0,0.0,0.0
1704781119551619282,14961,1704781119551388990,imu_link,0.007362559013389357,0.006050026031330011,-0.8689095410956612,-0.49487917646908736,0.0,0.0,0.0,0.0,0.0,0.0,0.0,0.0,0.0,0.034732052114687155,-0.004014257279586958,0.004363323129985824,0.0,0.0,0.0,0.0,0.0,0.0,0.0,0.0,0.0,0.51386846,-0.16475172,9.625226975,0.0,0.0,0.0,0.0,0.0,0.0,0.0,0.0,0.0
1704781119651705612,14962,1704781119651530986,imu_link,0.007112978413161034,0.005791151985886636,-0.8689978402551704,-0.4947308578698319,0.0,0.0,0.0,0.0,0.0,0.0,0.0,0.0,0.0,0.0031415926535897933,-0.008552113334772213,0.0041887902047863905,0.0,0.0,0.0,0.0,0.0,0.0,0.0,0.0,0.0,0.36676871,-0.24124358999999998,10.11850147,0.0,0.0,0.0,0.0,0.0,0.0,0.0,0.0,0.0
1704781119751520032,14963,1704781119751327453,imu_link,0.006734004842293348,0.0053046631239158796,-0.8690874502772651,-0.49458418646221175,0.0,0.0,0.0,0.0,0.0,0.0,0.0,0.0,0.0,-0.02199114857512855,-0.005585053606381855,0.006632251157578452,0.0,0.0,0.0,0.0,0.0,0.0,0.0,0.0,0.0,0.34323275000000003,0.08139519499999999,9.836069949999999,0.0,0.0,0.0,0.0,0.0,0.0,0.0,0.0,0.0
1704781119852503652,14964,1704781119852280449,imu_link,0.0064079416417805665,0.00579173473435106,-0.8691284123951324,-0.49451106849108933,0.0,0.0,0.0,0.0,0.0,0.0,0.0,0.0,0.0,-0.021467549799530253,0.00471238898038469,-0.0031415926535897933,0.0,0.0,0.0,0.0,0.0,0.0,0.0,0.0,0.0,0.42658927499999993,-0.067665885,9.82822463,0.0,0.0,0.0,0.0,0.0,0.0,0.0,0.0,0.0
1704781119952364493,14965,1704781119952119389,imu_link,0.006872967991107657,0.005728237276966166,-0.8691712353152045,-0.4944302916583221,0.0,0.0,0.0,0.0,0.0,0.0,0.0,0.0,0.0,0.014835298641951801,-0.00645771823237902,0.0012217304763960308,0.0,0.0,0.0,0.0,0.0,0.0,0.0,0.0,0.0,0.12944777999999998,-0.556037055,8.926993495,0.0,0.0,0.0,0.0,0.0,0.0,0.0,0.0,0.0
1704781120051510078,14966,1704781120051155910,imu_link,0.006464259171030164,0.005357186738539891,-0.8690012679906821,-0.4947386280999341,0.0,0.0,0.0,0.0,0.0,0.0,0.0,0.0,0.0,0.02949606435870417,-0.0158824961931484,-0.005585053606381855,0.0,0.0,0.0,0.0,0.0,0.0,0.0,0.0,0.0,-0.22947561,-0.10983448,11.330603409999998,0.0,0.0,0.0,0.0,0.0,0.0,0.0,0.0,0.0
1704781120151591384,14967,1704781120151478653,imu_link,0.006548410670606564,0.006213548928716434,-0.8690824768053919,-0.49458483462112457,0.0,0.0,0.0,0.0,0.0,0.0,0.0,0.0,0.0,-0.022165681500327987,0.046774823953448036,0.00942477796076938,0.0,0.0,0.0,0.0,0.0,0.0,0.0,0.0,0.0,0.20397832,-0.222610955,8.78087441,0.0,0.0,0.0,0.0,0.0,0.0,0.0,0.0,0.0
1704781120251869416,14968,1704781120251626431,imu_link,0.007205017156517224,0.0061433266610102935,-0.8693838975784024,-0.4940465422373647,0.0,0.0,0.0,0.0,0.0,0.0,0.0,0.0,0.0,0.026878070480712675,-0.04729842272904633,0.008028514559173916,0.0,0.0,0.0,0.0,0.0,0.0,0.0,0.0,0.0,-0.571727695,-0.67273619,11.076611174999998,0.0,0.0,0.0,0.0,0.0,0.0,0.0,0.0,0.0
1704781120351998532,14969,1704781120351757527,imu_link,0.0059818408078603225,0.00523386937825003,-0.8696063942621532,-0.49368162134138366,0.0,0.0,0.0,0.0,0.0,0.0,0.0,0.0,0.0,-0.040491638646268445,0.08307767239493008,0.0013962634015954637,0.0,0.0,0.0,0.0,0.0,0.0,0.0,0.0,0.0,0.42462794499999995,0.25889555999999997,8.026743025,0.0,0.0,0.0,0.0,0.0,0.0,0.0,0.0,0.0
1704781120451148625,14970,1704781120450940819,imu_link,0.008039037886683892,0.004968980836622262,-0.8696038999896893,-0.4936595387734587,0.0,0.0,0.0,0.0,0.0,0.0,0.0,0.0,0.0,-0.03438298626428829,-0.04799655442984406,-0.006283185307179587,0.0,0.0,0.0,0.0,0.0,0.0,0.0,0.0,0.0,-0.39716932499999996,-0.336368095,10.127327455,0.0,0.0,0.0,0.0,0.0,0.0,0.0,0.0,0.0
1704781120552763966,14971,1704781120552517273,imu_link,0.007659696171276931,0.005885285872462301,-0.8694277187257099,-0.4939657218635429,0.0,0.0,0.0,0.0,0.0,0.0,0.0,0.0,0.0,-0.016057029118347832,0.048869219055841226,-0.00645771823237902,0.0,0.0,0.0,0.0,0.0,0.0,0.0,0.0,0.0,-0.10198916,-0.43933792,9.705641505,0.0,0.0,0.0,0.0,0.0,0.0,0.0,0.0,0.0
1704781120651802757,14972,1704781120651605830,imu_link,0.007423027317373751,0.0051168619308047565,-0.8694752910666547,-0.4938941532494412,0.0,0.0,0.0,0.0,0.0,0.0,0.0,0.0,0.0,0.017453292519943295,-0.05480333851262195,0.007330382858376183,0.0,0.0,0.0,0.0,0.0,0.0,0.0,0.0,0.0,-0.41972461999999994,-0.25203090499999997,9.932175119999998,0.0,0.0,0.0,0.0,0.0,0.0,0.0,0.0,0.0
1704781120752261914,14973,1704781120752031358,imu_link,0.007228425023776068,0.004426165099694098,-0.8696510211863537,-0.4935942263476327,0.0,0.0,0.0,0.0,0.0,0.0,0.0,0.0,0.0,-0.002617993877991494,0.0497418836818384,-0.00645771823237902,0.0,0.0,0.0,0.0,0.0,0.0,0.0,0.0,0.0,-0.11964113,0.016671304999999997,9.54579311,0.0,0.0,0.0,0.0,0.0,0.0,0.0,0.0,0.0
1704781120851746682,14974,1704781120851363906,imu_link,0.006915693637128715,0.005102949242324184,-0.8693469905434575,-0.49412745635471544,0.0,0.0,0.0,0.0,0.0,0.0,0.0,0.0,0.0,-0.021467549799530253,-0.04363323129985824,-0.004363323129985824,0.0,0.0,0.0,0.0,0.0,0.0,0.0,0.0,0.0,-0.06374322499999999,-0.18044236,9.62032365,0.0,0.0,0.0,0.0,0.0,0.0,0.0,0.0,0.0
1704781120951319451,14975,1704781120951108715,imu_link,0.007046895619319758,0.003925892815151202,-0.8695239564495213,-0.4938248857521309,0.0,0.0,0.0,0.0,0.0,0.0,0.0,0.0,0.0,0.032637657012293965,0.035430183815484885,0.009773843811168246,0.0,0.0,0.0,0.0,0.0,0.0,0.0,0.0,0.0,-0.008825985,-0.47169986499999994,9.840973275,0.0,0.0,0.0,0.0,0.0,0.0,0.0,0.0,0.0
1704781121051841454,14976,1704781121051539655,imu_link,0.006106433324437328,0.0038568992853547034,-0.8693967068011463,-0.4940619414641027,0.0,0.0,0.0,0.0,0.0,0.0,0.0,0.0,0.0,-0.009599310885968814,-0.028797932657906436,-0.013788101090755204,0.0,0.0,0.0,0.0,0.0,0.0,0.0,0.0,0.0,-0.06374322499999999,0.51582979,10.13419211,0.0,0.0,0.0,0.0,0.0,0.0,0.0,0.0,0.0
1704781121151776241,14977,1704781121151523428,imu_link,0.006096691565871847,0.00436240837690676,-0.8691360121273458,-0.49451632143790536,0.0,0.0,0.0,0.0,0.0,0.0,0.0,0.0,0.0,0.017278759594743863,0.012217304763960306,-0.002967059728390361,0.0,0.0,0.0,0.0,0.0,0.0,0.0,0.0,0.0,-0.16279038999999998,-0.69431082,9.427132645,0.0,0.0,0.0,0.0,0.0,0.0,0.0,0.0,0.0
1704781121251020483,14978,1704781121250689544,imu_link,0.00541432236230111,0.004048689203813887,-0.8692677146854617,-0.49429539086926827,0.0,0.0,0.0,0.0,0.0,0.0,0.0,0.0,0.0,-0.012740903539558606,-0.009250245035569947,0.0008726646259971648,0.0,0.0,0.0,0.0,0.0,0.0,0.0,0.0,0.0,0.16965504499999998,0.13042844499999998,9.726235469999999,0.0,0.0,0.0,0.0,0.0,0.0,0.0,0.0,0.0
1704781121351343689,14979,1704781121351043328,imu_link,0.0032532520958218603,0.001665447404005697,-0.869664460890823,-0.493629788504725,0.0,0.0,0.0,0.0,0.0,0.0,0.0,0.0,0.0,0.08028514559173915,-0.06736970912698112,0.040491638646268445,0.0,0.0,0.0,0.0,0.0,0.0,0.0,0.0,0.0,-0.212804305,-0.671755525,9.890987189999999,0.0,0.0,0.0,0.0,0.0,0.0,0.0,0.0,0.0
1704781121451532711,14980,1704781121451246341,imu_link,0.0030136209545907774,0.003004572449832638,-0.8692737244618162,-0.49431273764026995,0.0,0.0,0.0,0.0,0.0,0.0,0.0,0.0,0.0,-0.18832102629018815,0.17453292519943295,-0.05916666164260777,0.0,0.0,0.0,0.0,0.0,0.0,0.0,0.0,0.0,1.1287454149999998,1.6465365349999999,9.06722859,0.0,0.0,0.0,0.0,0.0,0.0,0.0,0.0,0.0
1704781121551618271,14981,1704781121551323731,imu_link,0.00883043829407848,0.004906282042894354,-0.868393387782593,-0.4957730083531383,0.0,0.0,0.0,0.0,0.0,0.0,0.0,0.0,0.0,-0.130201562198777,-0.09424777960769379,-0.010995574287564275,0.0,0.0,0.0,0.0,0.0,0.0,0.0,0.0,0.0,0.12944777999999998,-1.5278760699999998,8.75929978,0.0,0.0,0.0,0.0,0.0,0.0,0.0,0.0,0.0
1704781121652114727,14982,1704781121651796736,imu_link,0.006264316932275865,0.005166302929839682,-0.8684839979533263,-0.49565069650552845,0.0,0.0,0.0,0.0,0.0,0.0,0.0,0.0,0.0,-0.0024434609527920616,0.05201081170943102,0.004537856055185257,0.0,0.0,0.0,0.0,0.0,0.0,0.0,0.0,0.0,0.42462794499999995,-0.5168104549999999,11.386501315,0.0,0.0,0.0,0.0,0.0,0.0,0.0,0.0,0.0
1704781121752016099,14983,1704781121751678162,imu_link,0.005681487366884383,0.0030868096032379976,-0.8684063948108739,-0.4958109778528042,0.0,0.0,0.0,0.0,0.0,0.0,0.0,0.0,0.0,-0.028797932657906436,-0.05201081170943102,-0.016057029118347832,0.0,0.0,0.0,0.0,0.0,0.0,0.0,0.0,0.0,0.25105024,0.520733115,8.218953364999999,0.0,0.0,0.0,0.0,0.0,0.0,0.0,0.0,0.0
1704781121851170052,14984,1704781121850875037,imu_link,0.004818190327971823,0.004382032577139905,-0.8680566830755454,-0.4964223784241987,0.0,0.0,0.0,0.0,0.0,0.0,0.0,0.0,0.0,-0.05026548245743669,0.045029494701453704,-0.013788101090755204,0.0,0.0,0.0,0.0,0.0,0.0,0.0,0.0,0.0,0.52367511,-0.518771785,10.527438774999998,0.0,0.0,0.0,0.0,0.0,0.0,0.0,0.0,0.0
1704781121951305556,14985,1704781121951057442,imu_link,0.005574324530156131,-0.0002711109066475658,-0.8681915767934335,-0.49619778253216773,0.0,0.0,0.0,0.0,0.0,0.0,0.0,0.0,0.0,0.06318091892219473,0.06579891280018622,0.016755160819145562,0.0,0.0,0.0,0.0,0.0,0.0,0.0,0.0,0.0,0.07354987499999999,-0.6070316349999999,9.185889054999999,0.0,0.0,0.0,0.0,0.0,0.0,0.0,0.0,0.0
1704781122051268740,14986,1704781122051084762,imu_link,0.0033771972625894213,0.0002802372573208398,-0.8680665972030243,-0.4964361981424113,0.0,0.0,0.0,0.0,0.0,0.0,0.0,0.0,0.0,-0.14870205226991687,-0.14049900478554353,-0.018675022996339326,0.0,0.0,0.0,0.0,0.0,0.0,0.0,0.0,0.0,0.13631243499999998,1.8103075899999999,10.24794925,0.0,0.0,0.0,0.0,0.0,0.0,0.0,0.0,0.0
1704781122151851609,14987,1704781122151457135,imu_link,0.004983326206376125,0.004487169999348252,-0.8677525172555262,-0.49695130602707527,0.0,0.0,0.0,0.0,0.0,0.0,0.0,0.0,0.0,0.0010471975511965976,0.08813912722571364,-0.007853981633974483,0.0,0.0,0.0,0.0,0.0,0.0,0.0,0.0,0.0,-0.24222425499999997,-1.936813375,7.973787115,0.0,0.0,0.0,0.0,0.0,0.0,0.0,0.0,0.0
1704781122250659559,14988,1704781122250429945,imu_link,0.004615586055470779,0.0034901096542621062,-0.8675833592167262,-0.4972581123623692,0.0,0.0,0.0,0.0,0.0,0.0,0.0,0.0,0.0,0.02129301687433082,-0.045029494701453704,0.0008726646259971648,0.0,0.0,0.0,0.0,0.0,0.0,0.0,0.0,0.0,-0.93359308,-0.06276256,11.454167199999999,0.0,0.0,0.0,0.0,0.0,0.0,0.0,0.0,0.0
1704781122351699961,14989,1704781122351080986,imu_link,0.005857822981506237,0.0019746387271233523,-0.8677148773645076,-0.4970238206687003,0.0,0.0,0.0,0.0,0.0,0.0,0.0,0.0,0.0,-0.008726646259971648,0.0486946861306418,0.0015707963267948967,0.0,0.0,0.0,0.0,0.0,0.0,0.0,0.0,0.0,-1.1003061299999999,-0.014709975,9.02604066,0.0,0.0,0.0,0.0,0.0,0.0,0.0,0.0,0.0
1704781122451466421,14990,1704781122450997412,imu_link,0.0031230353842954463,0.005452022542999368,-0.8677048998454492,-0.497039967089547,0.0,0.0,0.0,0.0,0.0,0.0,0.0,0.0,0.0,-0.01902408884673819,-0.0757472895365539,-0.006981317007977318,0.0,0.0,0.0,0.0,0.0,0.0,0.0,0.0,0.0,0.11571846999999999,-0.08237586,10.456830895,0.0,0.0,0.0,0.0,0.0,0.0,0.0,0.0,0.0
1704781122551745322,14991,1704781122551295674,imu_link,0.00562253133306986,0.004019648355525004,-0.8676235407805977,-0.4971736326997287,0.0,0.0,0.0,0.0,0.0,0.0,0.0,0.0,0.0,0.03769911184307752,0.04468042885105484,0.005759586531581288,0.0,0.0,0.0,0.0,0.0,0.0,0.0,0.0,0.0,-0.5707470299999999,-0.42560861,9.75369409,0.0,0.0,0.0,0.0,0.0,0.0,0.0,0.0,0.0
1704781122651668033,14992,1704781122651311626,imu_link,0.0024527604084158302,0.005333235656545925,-0.8676187970324234,-0.4971952972422618,0.0,0.0,0.0,0.0,0.0,0.0,0.0,0.0,0.0,0.028274333882308142,-0.04066617157146788,-0.009948376736367677,0.0,0.0,0.0,0.0,0.0,0.0,0.0,0.0,0.0,0.01765197,-0.39618865999999997,10.264620554999999,0.0,0.0,0.0,0.0,0.0,0.0,0.0,0.0,0.0
1704781122751828065,14993,1704781122751463674,imu_link,0.0032377526825367745,0.0038756687472002874,-0.8666702835179024,-0.4988558066378773,0.0,0.0,0.0,0.0,0.0,0.0,0.0,0.0,0.0,0.005759586531581288,0.007679448708775049,-0.07051130178057091,0.0,0.0,0.0,0.0,0.0,0.0,0.0,0.0,0.0,-0.06080122999999999,-0.15004174499999998,8.454312965,0.0,0.0,0.0,0.0,0.0,0.0,0.0,0.0,0.0
1704781122851035337,14994,1704781122850622220,imu_link,0.003015804595029057,0.004505575703723762,-0.8650958697132565,-0.5015772531876691,0.0,0.0,0.0,0.0,0.0,0.0,0.0,0.0,0.0,-0.007330382858376183,-0.02600540585471551,-0.045727626402251434,0.0,0.0,0.0,0.0,0.0,0.0,0.0,0.0,0.0,-0.27850886,-0.269682875,11.115837775,0.0,0.0,0.0,0.0,0.0,0.0,0.0,0.0,0.0
1704781122951679746,14995,1704781122950977496,imu_link,0.0035489459852085375,0.004698684512621996,-0.8637785655661052,-0.5038371929649564,0.0,0.0,0.0,0.0,0.0,0.0,0.0,0.0,0.0,0.010297442586766544,-0.015533430342749534,-0.0609119908946021,0.0,0.0,0.0,0.0,0.0,0.0,0.0,0.0,0.0,-0.261837555,-0.448163905,9.008388689999999,0.0,0.0,0.0,0.0,0.0,0.0,0.0,0.0,0.0
1704781123051379782,14996,1704781123051006351,imu_link,0.0027713811837308286,0.004545748258079638,-0.8622366452685718,-0.5064776630564347,0.0,0.0,0.0,0.0,0.0,0.0,0.0,0.0,0.0,0.005934119456780722,0.02897246558310587,-0.06265732014659643,0.0,0.0,0.0,0.0,0.0,0.0,0.0,0.0,0.0,0.22947561,0.02157463,10.63433126,0.0,0.0,0.0,0.0,0.0,0.0,0.0,0.0,0.0
1704781123151924073,14997,1704781123151465402,imu_link,0.00277469185422462,0.0038337849227846146,-0.8606890200912428,-0.5091090392761219,0.0,0.0,0.0,0.0,0.0,0.0,0.0,0.0,0.0,-0.04834562028024293,-0.02199114857512855,-0.0582939970166106,0.0,0.0,0.0,0.0,0.0,0.0,0.0,0.0,0.0,0.297141495,0.14611908499999998,9.32220149,0.0,0.0,0.0,0.0,0.0,0.0,0.0,0.0,0.0
1704781123250846709,14998,1704781123250329027,imu_link,0.0038774410907375548,0.0048002194005972955,-0.8589462665427365,-0.5120285485562186,0.0,0.0,0.0,0.0,0.0,0.0,0.0,0.0,0.0,0.033510321638291124,0.026703537555513242,-0.06876597252857658,0.0,0.0,0.0,0.0,0.0,0.0,0.0,0.0,0.0,0.14513842,-0.567805035,10.896168815,0.0,0.0,0.0,0.0,0.0,0.0,0.0,0.0,0.0
1704781123351080106,14999,1704781123350672386,imu_link,0.002767888653631658,0.0034278859539245924,-0.8576094285605866,-0.5142826620004529,0.0,0.0,0.0,0.0,0.0,0.0,0.0,0.0,0.0,0.03735004599267865,-0.01064650843716541,-0.041015237421866746,0.0,0.0,0.0,0.0,0.0,0.0,0.0,0.0,0.0,0.679600845,0.06276256,9.56540641,0.0,0.0,0.0,0.0,0.0,0.0,0.0,0.0,0.0
1704781123451197312,15000,1704781123450773850,imu_link,0.0033609441575337758,0.003883769129585126,-0.8563482369990563,-0.5163732345700407,0.0,0.0,0.0,0.0,0.0,0.0,0.0,0.0,0.0,0.00715584993317675,0.015533430342749534,-0.05026548245743669,0.0,0.0,0.0,0.0,0.0,0.0,0.0,0.0,0.0,0.33440676499999994,0.29812215999999997,9.12999115,0.0,0.0,0.0,0.0,0.0,0.0,0.0,0.0,0.0
1704781123551522939,15001,1704781123551102708,imu_link,0.005312977510069746,0.003720083480039791,-0.8553994790744439,-0.5179282425665247,0.0,0.0,0.0,0.0,0.0,0.0,0.0,0.0,0.0,-0.008203047484373348,0.024609142453120045,-0.016929693744344998,0.0,0.0,0.0,0.0,0.0,0.0,0.0,0.0,0.0,-0.42658927499999993,-0.38834334,10.864787535,0.0,0.0,0.0,0.0,0.0,0.0,0.0,0.0,0.0
1704781123651014211,15002,1704781123650589131,imu_link,0.005280897573954919,0.0033320140383661105,-0.8554912036989167,-0.5177796927236912,0.0,0.0,0.0,0.0,0.0,0.0,0.0,0.0,0.0,0.02234021442552742,0.02234021442552742,0.0158824961931484,0.0,0.0,0.0,0.0,0.0,0.0,0.0,0.0,0.0,-0.30989014000000004,-0.0784532,8.73772515,0.0,0.0,0.0,0.0,0.0,0.0,0.0,0.0,0.0
1704781123751565310,15003,1704781123751272881,imu_link,0.0053062806871096505,0.002707499937222078,-0.8558993585036548,-0.5171081133983413,0.0,0.0,0.0,0.0,0.0,0.0,0.0,0.0,0.0,-0.024783675378319478,-0.04066617157146788,0.002967059728390361,0.0,0.0,0.0,0.0,0.0,0.0,0.0,0.0,0.0,-0.5148491249999999,0.030400614999999995,10.027299625,0.0,0.0,0.0,0.0,0.0,0.0,0.0,0.0,0.0
1704781123851045114,15004,1704781123850519111,imu_link,0.00504153008304619,0.003784116285029203,-0.8557157715630807,-0.5174077519100043,0.0,0.0,0.0,0.0,0.0,0.0,0.0,0.0,0.0,-0.015707963267948967,0.012566370614359173,-0.00034906585039886593,0.0,0.0,0.0,0.0,0.0,0.0,0.0,0.0,0.0,-0.3138128,-0.048052584999999995,10.964815365,0.0,0.0,0.0,0.0,0.0,0.0,0.0,0.0,0.0
1704781123951152442,15005,1704781123950643281,imu_link,0.004858789723374222,0.003488384685339959,-0.8560330523169235,-0.5168864833555648,0.0,0.0,0.0,0.0,0.0,0.0,0.0,0.0,0.0,0.03665191429188092,-0.02809980095710871,0.012217304763960306,0.0,0.0,0.0,0.0,0.0,0.0,0.0,0.0,0.0,0.287334845,-0.29321883499999996,8.66515594,0.0,0.0,0.0,0.0,0.0,0.0,0.0,0.0,0.0
1704781124051301256,15006,1704781124050712451,imu_link,0.004827935110242358,0.0036098816113718365,-0.8562130298835962,-0.5165877536826392,0.0,0.0,0.0,0.0,0.0,0.0,0.0,0.0,0.0,0.00715584993317675,0.03892084231947355,0.011868238913561443,0.0,0.0,0.0,0.0,0.0,0.0,0.0,0.0,0.0,0.28047019,0.39814998999999995,10.344054419999999,0.0,0.0,0.0,0.0,0.0,0.0,0.0,0.0,0.0
1704781124151520418,15007,1704781124151098666,imu_link,0.005245395307084351,0.0034610179441577015,-0.8563933200723371,-0.5162857624594563,0.0,0.0,0.0,0.0,0.0,0.0,0.0,0.0,0.0,0.013962634015954637,-0.035430183815484885,0.010122909661567111,0.0,0.0,0.0,0.0,0.0,0.0,0.0,0.0,0.0,-0.42756994,-0.13533177,9.79684335,0.0,0.0,0.0,0.0,0.0,0.0,0.0,0.0,0.0
1704781124250117284,15008,1704781124249672375,imu_link,0.004794516076963069,0.0032246076849453045,-0.8566197968389766,-0.5159158247082718,0.0,0.0,0.0,0.0,0.0,0.0,0.0,0.0,0.0,0.013439035240356337,0.014486232791552934,0.007330382858376183,0.0,0.0,0.0,0.0,0.0,0.0,0.0,0.0,0.0,-0.042168594999999996,-0.06864655,9.154507774999999,0.0,0.0,0.0,0.0,0.0,0.0,0.0,0.0,0.0
1704781124350847748,15009,1704781124350262320,imu_link,0.006095863187470255,0.003358700177919689,-0.8567526177866804,-0.5156806293635477,0.0,0.0,0.0,0.0,0.0,0.0,0.0,0.0,0.0,0.05253441048502932,0.009250245035569947,0.013788101090755204,0.0,0.0,0.0,0.0,0.0,0.0,0.0,0.0,0.0,-0.08531785499999998,-0.25399223499999996,10.039067605,0.0,0.0,0.0,0.0,0.0,0.0,0.0,0.0,0.0
1704781124450835725,15010,1704781124450330600,imu_link,0.006468489684421501,0.0036459061349319527,-0.8570209908879035,-0.5152279953449482,0.0,0.0,0.0,0.0,0.0,0.0,0.0,0.0,0.0,-0.026703537555513242,-0.010471975511965976,0.009250245035569947,0.0,0.0,0.0,0.0,0.0,0.0,0.0,0.0,0.0,0.297141495,0.09120184499999999,10.249910579999998,0.0,0.0,0.0,0.0,0.0,0.0,0.0,0.0,0.0
1704781124551074869,15011,1704781124550626678,imu_link,0.0076363185406720215,0.0035537182564756714,-0.8569290422954602,-0.5153655733518531,0.0,0.0,0.0,0.0,0.0,0.0,0.0,0.0,0.0,-0.01117010721276371,0.061261056745000965,-0.010297442586766544,0.0,0.0,0.0,0.0,0.0,0.0,0.0,0.0,0.0,0.387362675,-0.12062179499999999,10.12438546,0.0,0.0,0.0,0.0,0.0,0.0,0.0,0.0,0.0
1704781124651654090,15012,1704781124651134667,imu_link,0.008578895551521304,0.0030880000634920975,-0.8568828716166218,-0.5154305104830099,0.0,0.0,0.0,0.0,0.0,0.0,0.0,0.0,0.0,0.014835298641951801,-0.019198621771937627,0.0022689280275926286,0.0,0.0,0.0,0.0,0.0,0.0,0.0,0.0,0.0,0.24908890999999997,-0.29027684,9.825282634999999,0.0,0.0,0.0,0.0,0.0,0.0,0.0,0.0,0.0
1704781124751742854,15013,1704781124751301432,imu_link,0.00877172409496248,0.002567789458974079,-0.8571079771644541,-0.5150557045551032,0.0,0.0,0.0,0.0,0.0,0.0,0.0,0.0,0.0,0.026354471705114374,0.060039326268604934,0.014660765716752367,0.0,0.0,0.0,0.0,0.0,0.0,0.0,0.0,0.0,0.38049802,0.28537351499999997,9.540889785,0.0,0.0,0.0,0.0,0.0,0.0,0.0,0.0,0.0
1704781124850570934,15014,1704781124850084763,imu_link,0.008785377947776504,0.0027669365171003415,-0.8573772146102391,-0.5146061339158456,0.0,0.0,0.0,0.0,0.0,0.0,0.0,0.0,0.0,0.01117010721276371,-0.07679448708775051,0.007504915783575617,0.0,0.0,0.0,0.0,0.0,0.0,0.0,0.0,0.0,-0.09610516999999999,-0.25203090499999997,9.50852784,0.0,0.0,0.0,0.0,0.0,0.0,0.0,0.0,0.0
1704781124950832138,15015,1704781124950145091,imu_link,0.007841125934573225,0.0037433490221182456,-0.8576018860681469,-0.5142407112379709,0.0,0.0,0.0,0.0,0.0,0.0,0.0,0.0,0.0,0.010471975511965976,0.020245819323134222,0.006981317007977318,0.0,0.0,0.0,0.0,0.0,0.0,0.0,0.0,0.0,0.142196425,-0.367749375,10.074371545,0.0,0.0,0.0,0.0,0.0,0.0,0.0,0.0,0.0
1704781125050887942,15016,1704781125050371323,imu_link,0.008156001042336342,0.004265804486975089,-0.8575096806446205,-0.51438548789778,0.0,0.0,0.0,0.0,0.0,0.0,0.0,0.0,0.0,0.025132741228718346,-0.03979350694547071,0.0010471975511965976,0.0,0.0,0.0,0.0,0.0,0.0,0.0,0.0,0.0,0.17651969999999997,-0.33538743,9.304549519999998,0.0,0.0,0.0,0.0,0.0,0.0,0.0,0.0,0.0
1704781125150804589,15017,1704781125150481297,imu_link,0.006537316771199687,0.004628327098243269,-0.8577804871732273,-0.5139537701997774,0.0,0.0,0.0,0.0,0.0,0.0,0.0,0.0,0.0,0.0671951762017817,0.0031415926535897933,0.01064650843716541,0.0,0.0,0.0,0.0,0.0,0.0,0.0,0.0,0.0,0.08825984999999999,-0.24222425499999997,10.886362165,0.0,0.0,0.0,0.0,0.0,0.0,0.0,0.0,0.0
1704781125250178410,15018,1704781125249698394,imu_link,0.006253013075846674,0.003985175000850531,-0.8578285296430542,-0.5138825079121897,0.0,0.0,0.0,0.0,0.0,0.0,0.0,0.0,0.0,0.04590215932745086,0.004886921905584123,0.0019198621771937623,0.0,0.0,0.0,0.0,0.0,0.0,0.0,0.0,0.0,-0.106892485,0.31577413,8.66319461,0.0,0.0,0.0,0.0,0.0,0.0,0.0,0.0,0.0
1704781125350415593,15019,1704781125349912454,imu_link,0.005998077980147166,0.004748267392230612,-0.8578256566278565,-0.5138838583262787,0.0,0.0,0.0,0.0,0.0,0.0,0.0,0.0,0.0,0.00034906585039886593,-0.019547687622336492,-0.0024434609527920616,0.0,0.0,0.0,0.0,0.0,0.0,0.0,0.0,0.0,-0.17063570999999997,0.022555295,11.234498239999999,0.0,0.0,0.0,0.0,0.0,0.0,0.0,0.0,0.0
1704781125450504024,15020,1704781125450152852,imu_link,0.007017070526807627,0.0037300350556238684,-0.8577382512870975,-0.5140252326867403,0.0,0.0,0.0,0.0,0.0,0.0,0.0,0.0,0.0,0.0020943951023931952,0.03647738136668148,-0.0022689280275926286,0.0,0.0,0.0,0.0,0.0,0.0,0.0,0.0,0.0,-0.05099458,-0.220649625,9.127049155,0.0,0.0,0.0,0.0,0.0,0.0,0.0,0.0,0.0
1704781125551271942,15021,1704781125550483374,imu_link,0.007093121210732883,0.004191540311544581,-0.857557023692542,-0.5143229235965432,0.0,0.0,0.0,0.0,0.0,0.0,0.0,0.0,0.0,-0.015533430342749534,-0.032637657012293965,-0.0054105206811824215,0.0,0.0,0.0,0.0,0.0,0.0,0.0,0.0,0.0,-0.26085688999999995,0.17651969999999997,10.666693204999998,0.0,0.0,0.0,0.0,0.0,0.0,0.0,0.0,0.0
1704781125650159894,15022,1704781125649755263,imu_link,0.007964068242240977,0.004275896991214232,-0.8571956949532055,-0.5149114786792433,0.0,0.0,0.0,0.0,0.0,0.0,0.0,0.0,0.0,0.016929693744344998,0.04310963252425994,-0.010471975511965976,0.0,0.0,0.0,0.0,0.0,0.0,0.0,0.0,0.0,-0.10493115499999998,-0.6158576199999999,9.554619095,0.0,0.0,0.0,0.0,0.0,0.0,0.0,0.0,0.0
1704781125749942380,15023,1704781125749475861,imu_link,0.007724963932291345,0.004215493609433558,-0.8571514894083482,-0.5149892025576109,0.0,0.0,0.0,0.0,0.0,0.0,0.0,0.0,0.0,0.01064650843716541,-0.01902408884673819,0.00715584993317675,0.0,0.0,0.0,0.0,0.0,0.0,0.0,0.0,0.0,-0.022555295,0.12356378999999999,9.234922305,0.0,0.0,0.0,0.0,0.0,0.0,0.0,0.0,0.0
1704781125850223971,15024,1704781125849764242,imu_link,0.00799574749992353,0.004152664640739187,-0.8569713201823356,-0.5152853382187814,0.0,0.0,0.0,0.0,0.0,0.0,0.0,0.0,0.0,-0.004537856055185257,-0.00017453292519943296,-0.021467549799530253,0.0,0.0,0.0,0.0,0.0,0.0,0.0,0.0,0.0,-0.27850886,-0.561921045,10.521554785,0.0,0.0,0.0,0.0,0.0,0.0,0.0,0.0,0.0
1704781125950339875,15025,1704781125949924572,imu_link,0.007296058309187208,0.0036512151713639428,-0.8563893357775098,-0.5162661539627376,0.0,0.0,0.0,0.0,0.0,0.0,0.0,0.0,0.0,0.016057029118347832,-0.0020943951023931952,-0.02530727415391778,0.0,0.0,0.0,0.0,0.0,0.0,0.0,0.0,0.0,-0.032361944999999996,-0.12748644999999997,9.11430051,0.0,0.0,0.0,0.0,0.0,0.0,0.0,0.0,0.0
1704781126050723076,15026,1704781126050137903,imu_link,0.007180085441891141,0.0031014200058221354,-0.855578955677288,-0.5176132515393671,0.0,0.0,0.0,0.0,0.0,0.0,0.0,0.0,0.0,0.02617993877991494,-0.009075712110370514,-0.03769911184307752,0.0,0.0,0.0,0.0,0.0,0.0,0.0,0.0,0.0,-0.03138128,0.106892485,10.700035815,0.0,0.0,0.0,0.0,0.0,0.0,0.0,0.0,0.0
1704781126151075652,15027,1704781126150320859,imu_link,0.007757662416025995,0.003350432964892228,-0.8543551712657621,-0.5196208565908773,0.0,0.0,0.0,0.0,0.0,0.0,0.0,0.0,0.0,0.0019198621771937623,0.02583087292951608,-0.041189770347066175,0.0,0.0,0.0,0.0,0.0,0.0,0.0,0.0,0.0,0.0980665,-0.277528195,8.97504608,0.0,0.0,0.0,0.0,0.0,0.0,0.0,0.0,0.0
1704781126249703043,15028,1704781126249313579,imu_link,0.006948993454937544,0.004344785610287567,-0.853354185777468,-0.5212671752029265,0.0,0.0,0.0,0.0,0.0,0.0,0.0,0.0,0.0,0.02391101075232232,-0.047123889803846894,-0.03822271061867582,0.0,0.0,0.0,0.0,0.0,0.0,0.0,0.0,0.0,0.030400614999999995,-0.23928226,10.04789359,0.0,0.0,0.0,0.0,0.0,0.0,0.0,0.0,0.0
1704781126350542456,15029,1704781126349816732,imu_link,0.007806825317631072,0.003703972236293254,-0.8519872794157844,-0.5234911745023241,0.0,0.0,0.0,0.0,0.0,0.0,0.0,0.0,0.0,0.005934119456780722,0.03787364476827695,-0.049567350756638956,0.0,0.0,0.0,0.0,0.0,0.0,0.0,0.0,0.0,-0.144157755,-0.19809432999999999,9.914523149999999,0.0,0.0,0.0,0.0,0.0,0.0,0.0,0.0,0.0
1704781126450222077,15030,1704781126449785742,imu_link,0.0074580637358398405,0.003594574317971333,-0.8503394482413129,-0.5261694395206206,0.0,0.0,0.0,0.0,0.0,0.0,0.0,0.0,0.0,-0.008203047484373348,-0.002967059728390361,-0.06562437987498679,0.0,0.0,0.0,0.0,0.0,0.0,0.0,0.0,0.0,0.11081514499999999,-0.116699135,9.41242267,0.0,0.0,0.0,0.0,0.0,0.0,0.0,0.0,0.0
1704781126550347949,15031,1704781126549977011,imu_link,0.009709026872557092,0.0032014830155250424,-0.8485392435251489,-0.5290336827664733,0.0,0.0,0.0,0.0,0.0,0.0,0.0,0.0,0.0,-0.002967059728390361,0.024085543677521744,-0.06475171524898962,0.0,0.0,0.0,0.0,0.0,0.0,0.0,0.0,0.0,-0.38442067999999996,-0.43737658999999995,10.135172775000001,0.0,0.0,0.0,0.0,0.0,0.0,0.0,0.0,0.0
1704781126649461842,15032,1704781126649096666,imu_link,0.007250082883479909,0.004001324832860038,-0.84701553941087,-0.5315036234065367,0.0,0.0,0.0,0.0,0.0,0.0,0.0,0.0,0.0,0.0010471975511965976,-0.043807764225057666,-0.061086523819801536,0.0,0.0,0.0,0.0,0.0,0.0,0.0,0.0,0.0,0.163771055,-0.05295591,9.331027474999999,0.0,0.0,0.0,0.0,0.0,0.0,0.0,0.0,0.0
1704781126749800945,15033,1704781126749342571,imu_link,0.009398084478237756,0.0018016777211153456,-0.8452474916184224,-0.5342893484604517,0.0,0.0,0.0,0.0,0.0,0.0,0.0,0.0,0.0,0.005061454830783556,0.03316125578789226,-0.05637413483941684,0.0,0.0,0.0,0.0,0.0,0.0,0.0,0.0,0.0,-0.67077486,0.39618865999999997,10.71474579,0.0,0.0,0.0,0.0,0.0,0.0,0.0,0.0,0.0
1704781126850090146,15034,1704781126849530822,imu_link,0.008449357432570366,0.0032156733352116554,-0.8442676638512921,-0.535845481066193,0.0,0.0,0.0,0.0,0.0,0.0,0.0,0.0,0.0,-0.026354471705114374,0.023212879051524585,-0.0317649923862968,0.0,0.0,0.0,0.0,0.0,0.0,0.0,0.0,0.0,0.08531785499999998,-0.281450855,8.956413444999999,0.0,0.0,0.0,0.0,0.0,0.0,0.0,0.0,0.0
1704781126950043643,15035,1704781126949639944,imu_link,0.010755577995171413,0.0019459258169094188,-0.843560579404357,-0.536922787549281,0.0,0.0,0.0,0.0,0.0,0.0,0.0,0.0,0.0,-0.011344640137963142,0.024085543677521744,-0.014835298641951801,0.0,0.0,0.0,0.0,0.0,0.0,0.0,0.0,0.0,-1.658304515,-0.35107806999999996,10.320518459999999,0.0,0.0,0.0,0.0,0.0,0.0,0.0,0.0,0.0
1704781127050244167,15036,1704781127049773601,imu_link,0.009229602894978147,0.003124967209244553,-0.8436106982398532,-0.5368668725350906,0.0,0.0,0.0,0.0,0.0,0.0,0.0,0.0,0.0,-0.019198621771937627,-0.06405358354819189,0.005585053606381855,0.0,0.0,0.0,0.0,0.0,0.0,0.0,0.0,0.0,-0.7864933299999999,-0.01765197,9.117242504999998,0.0,0.0,0.0,0.0,0.0,0.0,0.0,0.0,0.0
1704781127150614325,15037,1704781127150118228,imu_link,0.00993946567702315,0.0027751349756867222,-0.8435156465264906,-0.537005455943344,0.0,0.0,0.0,0.0,0.0,0.0,0.0,0.0,0.0,0.00890117918517108,0.06475171524898962,-0.017453292519943295,0.0,0.0,0.0,0.0,0.0,0.0,0.0,0.0,0.0,-0.72373077,-0.671755525,10.956970044999998,0.0,0.0,0.0,0.0,0.0,0.0,0.0,0.0,0.0
1704781127249523867,15038,1704781127249108859,imu_link,0.008481513505743186,0.0019403993471240532,-0.8431922123704109,-0.5375418046784057,0.0,0.0,0.0,0.0,0.0,0.0,0.0,0.0,0.0,0.005585053606381855,-0.061959188445798695,0.0006981317007977319,0.0,0.0,0.0,0.0,0.0,0.0,0.0,0.0,0.0,0.148080415,0.5168104549999999,9.338872795,0.0,0.0,0.0,0.0,0.0,0.0,0.0,0.0,0.0
1704781127349529253,15039,1704781127349160734,imu_link,0.007724970393444315,0.0033566511170255017,-0.8434261408154795,-0.5371791160449239,0.0,0.0,0.0,0.0,0.0,0.0,0.0,0.0,0.0,-0.040491638646268445,0.05480333851262195,0.005934119456780722,0.0,0.0,0.0,0.0,0.0,0.0,0.0,0.0,0.0,0.86886919,0.17455837,9.944923764999999,0.0,0.0,0.0,0.0,0.0,0.0,0.0,0.0,0.0
1704781127449809708,15040,1704781127449435535,imu_link,0.009412762455573613,0.002587168596900403,-0.843095265754603,-0.5376756264922018,0.0,0.0,0.0,0.0,0.0,0.0,0.0,0.0,0.0,0.018675022996339326,-0.05881759579220891,-0.01658062789394613,0.0,0.0,0.0,0.0,0.0,0.0,0.0,0.0,0.0,0.352058735,-0.993413645,9.42419065,0.0,0.0,0.0,0.0,0.0,0.0,0.0,0.0,0.0
1704781127549899275,15041,1704781127549532884,imu_link,0.0064997193137566285,0.001756978221115057,-0.8433845141296619,-0.537268301691666,0.0,0.0,0.0,0.0,0.0,0.0,0.0,0.0,0.0,-0.02757620218151041,0.04468042885105484,0.022165681500327987,0.0,0.0,0.0,0.0,0.0,0.0,0.0,0.0,0.0,1.058137535,1.130706745,9.287878215,0.0,0.0,0.0,0.0,0.0,0.0,0.0,0.0,0.0
1704781127649418957,15042,1704781127648835453,imu_link,0.011492717381398988,0.002611079876507917,-0.8433702418615676,-0.5372036251287131,0.0,0.0,0.0,0.0,0.0,0.0,0.0,0.0,0.0,-0.10821041362364843,0.01308996938995747,-0.03682644721708035,0.0,0.0,0.0,0.0,0.0,0.0,0.0,0.0,0.0,-0.33244543499999996,-0.053936574999999994,11.608131604999999,0.0,0.0,0.0,0.0,0.0,0.0,0.0,0.0,0.0
1704781127749365645,15043,1704781127748969212,imu_link,0.00801809406498723,0.004613104501025603,-0.8428580582330899,-0.5380564311538083,0.0,0.0,0.0,0.0,0.0,0.0,0.0,0.0,0.0,-0.026703537555513242,-0.024260076602721177,0.0041887902047863905,0.0,0.0,0.0,0.0,0.0,0.0,0.0,0.0,0.0,0.7855126649999999,-0.79826131,9.73996478,0.0,0.0,0.0,0.0,0.0,0.0,0.0,0.0,0.0
1704781127849501870,15044,1704781127849137334,imu_link,0.00917584544884175,-5.872129248421856e-05,-0.8429540746568945,-0.5379072675019807,0.0,0.0,0.0,0.0,0.0,0.0,0.0,0.0,0.0,0.05445427266222308,0.0661479786505851,-0.01308996938995747,0.0,0.0,0.0,0.0,0.0,0.0,0.0,0.0,0.0,-0.13140911,0.624683605,8.96916209,0.0,0.0,0.0,0.0,0.0,0.0,0.0,0.0,0.0
1704781127950114036,15045,1704781127949458866,imu_link,0.008628518479522215,0.0006989712947918017,-0.8425812624406616,-0.5384996530099893,0.0,0.0,0.0,0.0,0.0,0.0,0.0,0.0,0.0,-0.05916666164260777,-0.05044001538263612,-0.010471975511965976,0.0,0.0,0.0,0.0,0.0,0.0,0.0,0.0,0.0,-0.33440676499999994,0.43933792,11.274705504999998,0.0,0.0,0.0,0.0,0.0,0.0,0.0,0.0,0.0
1704781128049939492,15046,1704781128049502315,imu_link,0.00855894386236038,-0.0007049254762966904,-0.842672704473964,-0.5383576512826478,0.0,0.0,0.0,0.0,0.0,0.0,0.0,0.0,0.0,0.11850785621041496,0.04468042885105484,0.01658062789394613,0.0,0.0,0.0,0.0,0.0,0.0,0.0,0.0,0.0,-0.301064155,-0.8296425899999998,7.848261995,0.0,0.0,0.0,0.0,0.0,0.0,0.0,0.0,0.0
1704781128150254333,15047,1704781128149771273,imu_link,0.00908172332837929,-0.0002161470910178832,-0.8423433078763819,-0.5388647578545999,0.0,0.0,0.0,0.0,0.0,0.0,0.0,0.0,0.0,-0.00471238898038469,-0.04136430327226561,-0.020071286397934786,0.0,0.0,0.0,0.0,0.0,0.0,0.0,0.0,0.0,-0.499158485,0.94732239,11.82289724,0.0,0.0,0.0,0.0,0.0,0.0,0.0,0.0,0.0
1704781128249348469,15048,1704781128248826933,imu_link,0.01063161187259723,0.0010634708350309016,-0.8419167618770104,-0.5395016255112701,0.0,0.0,0.0,0.0,0.0,0.0,0.0,0.0,0.0,0.03717551306747922,0.04363323129985824,-0.0012217304763960308,0.0,0.0,0.0,0.0,0.0,0.0,0.0,0.0,0.0,-0.14513842,-1.2552512,7.527584539999999,0.0,0.0,0.0,0.0,0.0,0.0,0.0,0.0,0.0
1704781128349407236,15049,1704781128348986352,imu_link,0.01065208774168686,0.0012593604994801987,-0.8420109973653439,-0.539353712654038,0.0,0.0,0.0,0.0,0.0,0.0,0.0,0.0,0.0,0.032463124087094536,-0.023212879051524585,-0.002617993877991494,0.0,0.0,0.0,0.0,0.0,0.0,0.0,0.0,0.0,-0.15298373999999998,-0.316754795,11.364926685,0.0,0.0,0.0,0.0,0.0,0.0,0.0,0.0,0.0
1704781128449185611,15050,1704781128448825829,imu_link,0.00966345252988958,-0.0002904527853916216,-0.8416351560048778,-0.5399599962025213,0.0,0.0,0.0,0.0,0.0,0.0,0.0,0.0,0.0,0.018500490071139894,0.0036651914291880917,-0.013788101090755204,0.0,0.0,0.0,0.0,0.0,0.0,0.0,0.0,0.0,-0.257914895,0.46483520999999994,9.172159745,0.0,0.0,0.0,0.0,0.0,0.0,0.0,0.0,0.0
1704781128549732524,15051,1704781128549334931,imu_link,0.009705065715275234,9.589250351589671e-05,-0.8415416617677496,-0.5401050212812915,0.0,0.0,0.0,0.0,0.0,0.0,0.0,0.0,0.0,0.055326937288220246,0.010471975511965976,0.015184364492350668,0.0,0.0,0.0,0.0,0.0,0.0,0.0,0.0,0.0,-0.287334845,-0.5982056499999999,9.79880468,0.0,0.0,0.0,0.0,0.0,0.0,0.0,0.0,0.0
1704781128648928781,15052,1704781128648454282,imu_link,0.008516651876647357,-0.0011041922691656853,-0.8419662321270782,-0.5394618720150441,0.0,0.0,0.0,0.0,0.0,0.0,0.0,0.0,0.0,0.02530727415391778,-0.04520402762665313,0.003490658503988659,0.0,0.0,0.0,0.0,0.0,0.0,0.0,0.0,0.0,-0.27850886,0.12454445499999998,9.880199875,0.0,0.0,0.0,0.0,0.0,0.0,0.0,0.0,0.0
1704781128749248626,15053,1704781128748776271,imu_link,0.009213188533481716,-0.0008292904309632207,-0.8417293758900763,-0.539820421249632,0.0,0.0,0.0,0.0,0.0,0.0,0.0,0.0,0.0,-0.030019663134302467,0.07312929565856242,-0.013439035240356337,0.0,0.0,0.0,0.0,0.0,0.0,0.0,0.0,0.0,-0.44424124499999995,-0.10198916,9.67720222,0.0,0.0,0.0,0.0,0.0,0.0,0.0,0.0,0.0
1704781128849535325,15054,1704781128849155054,imu_link,0.01053816736120442,0.0009082525914553856,-0.8414929755874904,-0.5401645065559274,0.0,0.0,0.0,0.0,0.0,0.0,0.0,0.0,0.0,-0.03106686068549907,-0.022863813201125717,-0.007504915783575617,0.0,0.0,0.0,0.0,0.0,0.0,0.0,0.0,0.0,-1.413138265,-0.57859235,9.662492245,0.0,0.0,0.0,0.0,0.0,0.0,0.0,0.0,0.0
1704781128949435059,15055,1704781128948954439,imu_link,0.011361441268794018,0.0008962691914128048,-0.8413956910948699,-0.5402993664264456,0.0,0.0,0.0,0.0,0.0,0.0,0.0,0.0,0.0,-0.008552113334772213,0.03804817769347638,-0.011868238913561443,0.0,0.0,0.0,0.0,0.0,0.0,0.0,0.0,0.0,-1.0532342099999998,-0.6648908699999999,9.58698104,0.0,0.0,0.0,0.0,0.0,0.0,0.0,0.0,0.0
1704781129049555849,15056,1704781129049153256,imu_link,0.010859405149780928,0.0005763435017213008,-0.8403581809724283,-0.5419223826533394,0.0,0.0,0.0,0.0,0.0,0.0,0.0,0.0,0.0,-0.04415683007545653,-0.039095375244672985,-0.07033676885537149,0.0,0.0,0.0,0.0,0.0,0.0,0.0,0.0,0.0,-0.8119906199999999,-0.23143693999999998,10.09888817,0.0,0.0,0.0,0.0,0.0,0.0,0.0,0.0,0.0
1704781129149808565,15057,1704781129149388416,imu_link,0.01023235690436634,0.0005275162597375253,-0.8382733251738018,-0.545153971737192,0.0,0.0,0.0,0.0,0.0,0.0,0.0,0.0,0.0,-0.042411500823462206,0.00942477796076938,-0.07696902001294993,0.0,0.0,0.0,0.0,0.0,0.0,0.0,0.0,0.0,-0.29616083,-0.23928226,9.21432834,0.0,0.0,0.0,0.0,0.0,0.0,0.0,0.0,0.0
1704781129249189709,15058,1704781129248641120,imu_link,0.010991618197708192,-0.0004210585982321732,-0.8364083260751035,-0.547996459031713,0.0,0.0,0.0,0.0,0.0,0.0,0.0,0.0,0.0,0.005235987755982988,0.006108652381980153,-0.05166174585903216,0.0,0.0,0.0,0.0,0.0,0.0,0.0,0.0,0.0,-0.5383850849999999,-0.10787314999999999,10.421526955,0.0,0.0,0.0,0.0,0.0,0.0,0.0,0.0,0.0
1704781129349167539,15059,1704781129348798181,imu_link,0.008561542976312266,0.0012534868069794128,-0.8348371388507237,-0.5504289966455499,0.0,0.0,0.0,0.0,0.0,0.0,0.0,0.0,0.0,-0.0038397243543875246,-0.04817108735504349,-0.06859143960337716,0.0,0.0,0.0,0.0,0.0,0.0,0.0,0.0,0.0,0.5060231399999999,0.19319100499999997,9.320240159999999,0.0,0.0,0.0,0.0,0.0,0.0,0.0,0.0,0.0
1704781129449303619,15060,1704781129448923753,imu_link,0.010332754005786399,0.0015122705851522986,-0.8326643734743816,-0.5536794996916974,0.0,0.0,0.0,0.0,0.0,0.0,0.0,0.0,0.0,-0.02129301687433082,0.03089232776029963,-0.10035643198967394,0.0,0.0,0.0,0.0,0.0,0.0,0.0,0.0,0.0,-0.148080415,-0.5795730149999999,10.695132489999999,0.0,0.0,0.0,0.0,0.0,0.0,0.0,0.0,0.0
1704781129549550508,15061,1704781129549083928,imu_link,0.01056287630904999,0.0025705891421200257,-0.8297526197118419,-0.5580254544345424,0.0,0.0,0.0,0.0,0.0,0.0,0.0,0.0,0.0,-0.03874630939427412,0.00471238898038469,-0.09302604913129776,0.0,0.0,0.0,0.0,0.0,0.0,0.0,0.0,0.0,-0.297141495,0.39716932499999996,10.504883479999998,0.0,0.0,0.0,0.0,0.0,0.0,0.0,0.0,0.0
1704781129648956703,15062,1704781129648380527,imu_link,0.009650369983586517,0.007050075213985006,-0.8268016127478776,-0.5623666597124742,0.0,0.0,0.0,0.0,0.0,0.0,0.0,0.0,0.0,0.0024434609527920616,-0.10716321607245181,-0.09913470151327791,0.0,0.0,0.0,0.0,0.0,0.0,0.0,0.0,0.0,0.48444850999999994,-0.6080123,7.358910159999999,0.0,0.0,0.0,0.0,0.0,0.0,0.0,0.0,0.0
1704781129748885808,15063,1704781129748432810,imu_link,0.01250546961239372,0.0012686611975508775,-0.8248950910515586,-0.5651460806619649,0.0,0.0,0.0,0.0,0.0,0.0,0.0,0.0,0.0,-0.002967059728390361,0.21362830044410594,-0.049043751981040655,0.0,0.0,0.0,0.0,0.0,0.0,0.0,0.0,0.0,-0.54132708,-0.17651969999999997,14.502074019999998,0.0,0.0,0.0,0.0,0.0,0.0,0.0,0.0,0.0
1704781129849074993,15064,1704781129848580205,imu_link,0.010210887459007258,-0.00025015126734730976,-0.8236156476992795,-0.5670563817351314,0.0,0.0,0.0,0.0,0.0,0.0,0.0,0.0,0.0,-0.024609142453120045,-0.13107422682477415,-0.055326937288220246,0.0,0.0,0.0,0.0,0.0,0.0,0.0,0.0,0.0,-0.20299765499999997,0.7139241199999999,7.381465455,0.0,0.0,0.0,0.0,0.0,0.0,0.0,0.0,0.0
1704781129949179373,15065,1704781129948737001,imu_link,0.010598160086051007,0.002421009551470255,-0.8217811461106013,-0.5696995397687176,0.0,0.0,0.0,0.0,0.0,0.0,0.0,0.0,0.0,-0.046076692252650306,0.07696902001294993,-0.06440264939859076,0.0,0.0,0.0,0.0,0.0,0.0,0.0,0.0,0.0,-0.15004174499999998,-0.29125750499999997,10.819676945,0.0,0.0,0.0,0.0,0.0,0.0,0.0,0.0,0.0
1704781130049340910,15066,1704781130048956169,imu_link,0.011569941828212759,0.0022510439417611676,-0.8202344563578651,-0.5719060288636425,0.0,0.0,0.0,0.0,0.0,0.0,0.0,0.0,0.0,0.09302604913129776,-0.08063421144213802,-0.04066617157146788,0.0,0.0,0.0,0.0,0.0,0.0,0.0,0.0,0.0,-0.17848102999999998,-0.9885103199999999,8.61612269,0.0,0.0,0.0,0.0,0.0,0.0,0.0,0.0,0.0
1704781130149566702,15067,1704781130149118264,imu_link,0.010143676561653782,0.0011065772162513017,-0.8195392191481013,-0.5729322382191435,0.0,0.0,0.0,0.0,0.0,0.0,0.0,0.0,0.0,0.05096361415823442,0.09965830028887622,-0.0017453292519943296,0.0,0.0,0.0,0.0,0.0,0.0,0.0,0.0,0.0,0.17553903499999998,0.989490985,10.645118574999998,0.0,0.0,0.0,0.0,0.0,0.0,0.0,0.0,0.0
1704781130248552037,15068,1704781130248187162,imu_link,0.012802107847379014,0.0020170571487703,-0.819581564612963,-0.572815935935524,0.0,0.0,0.0,0.0,0.0,0.0,0.0,0.0,0.0,-0.1387536755335492,-0.014835298641951801,-0.004886921905584123,0.0,0.0,0.0,0.0,0.0,0.0,0.0,0.0,0.0,-0.38834334,-0.12650578499999998,10.005724995,0.0,0.0,0.0,0.0,0.0,0.0,0.0,0.0,0.0
1704781130348918758,15069,1704781130348456589,imu_link,0.01352289138911324,0.0018410658494625093,-0.8199788342903385,-0.5722311186932023,0.0,0.0,0.0,0.0,0.0,0.0,0.0,0.0,0.0,0.11554079648202462,-0.022689280275926284,0.03717551306747922,0.0,0.0,0.0,0.0,0.0,0.0,0.0,0.0,0.0,-0.24418558499999998,-0.98458766,8.650445965,0.0,0.0,0.0,0.0,0.0,0.0,0.0,0.0,0.0
1704781130449180406,15070,1704781130448623517,imu_link,0.011129040434144942,0.0008591027771038826,-0.8203852405075942,-0.5717022507903308,0.0,0.0,0.0,0.0,0.0,0.0,0.0,0.0,0.0,0.060562925044203235,0.04590215932745086,-0.0022689280275926286,0.0,0.0,0.0,0.0,0.0,0.0,0.0,0.0,0.0,-0.13631243499999998,0.64331624,10.825560935,0.0,0.0,0.0,0.0,0.0,0.0,0.0,0.0,0.0
1704781130549175532,15071,1704781130548789836,imu_link,0.012595625335729303,0.00036217995922004694,-0.8200803107087038,-0.5721096949327067,0.0,0.0,0.0,0.0,0.0,0.0,0.0,0.0,0.0,-0.05235987755982988,-0.043807764225057666,0.0006981317007977319,0.0,0.0,0.0,0.0,0.0,0.0,0.0,0.0,0.0,-0.532501095,0.638412915,9.80665,0.0,0.0,0.0,0.0,0.0,0.0,0.0,0.0,0.0
1704781130648275729,15072,1704781130647894407,imu_link,0.013290362200213854,0.0034980064967597476,-0.8202275706354432,-0.5718722432437291,0.0,0.0,0.0,0.0,0.0,0.0,0.0,0.0,0.0,-0.023038346126325153,0.022514747350726852,0.0005235987755982988,0.0,0.0,0.0,0.0,0.0,0.0,0.0,0.0,0.0,-0.20790097999999999,-0.8453332299999999,9.629149635,0.0,0.0,0.0,0.0,0.0,0.0,0.0,0.0,0.0
1704781130748371285,15073,1704781130747970356,imu_link,0.01382922533191357,0.001533034662883308,-0.8205264985206986,-0.5714391197291304,0.0,0.0,0.0,0.0,0.0,0.0,0.0,0.0,0.0,0.03316125578789226,-0.026529004630313806,0.020071286397934786,0.0,0.0,0.0,0.0,0.0,0.0,0.0,0.0,0.0,-0.6207609449999999,-0.15102241,10.804966969999999,0.0,0.0,0.0,0.0,0.0,0.0,0.0,0.0,0.0
1704781130848723789,15074,1704781130848295184,imu_link,0.011214065036512854,0.007071141135203334,-0.8199660129589141,-0.5722586664268742,0.0,0.0,0.0,0.0,0.0,0.0,0.0,0.0,0.0,-0.15917402778188283,-0.11780972450961724,-0.07906341511534314,0.0,0.0,0.0,0.0,0.0,0.0,0.0,0.0,0.0,-0.86102387,0.467777205,10.248929914999998,0.0,0.0,0.0,0.0,0.0,0.0,0.0,0.0,0.0
1704781130948703952,15075,1704781130948335049,imu_link,0.008989382319448694,0.010112087004888677,-0.8193893936899787,-0.5730776197080891,0.0,0.0,0.0,0.0,0.0,0.0,0.0,0.0,0.0,0.007504915783575617,0.07173303225696695,0.056025068989017976,0.0,0.0,0.0,0.0,0.0,0.0,0.0,0.0,0.0,1.31016844,-1.2336765699999999,7.78844143,0.0,0.0,0.0,0.0,0.0,0.0,0.0,0.0,0.0
1704781131048956658,15076,1704781131048565262,imu_link,0.012301147501680234,0.0027149052336377143,-0.8211291439399223,-0.5706033999479889,0.0,0.0,0.0,0.0,0.0,0.0,0.0,0.0,0.0,0.09058258817850572,0.028623399732707,0.02234021442552742,0.0,0.0,0.0,0.0,0.0,0.0,0.0,0.0,0.0,-0.536423755,-0.7600153749999999,12.004320264999999,0.0,0.0,0.0,0.0,0.0,0.0,0.0,0.0,0.0
1704781131149329219,15077,1704781131148871672,imu_link,0.0071728825905551415,0.002657935210837617,-0.8202434043761001,-0.5719634977105292,0.0,0.0,0.0,0.0,0.0,0.0,0.0,0.0,0.0,-0.08063421144213802,-0.04293509959906051,-0.08237954069413235,0.0,0.0,0.0,0.0,0.0,0.0,0.0,0.0,0.0,0.132389775,1.032640245,8.875998915,0.0,0.0,0.0,0.0,0.0,0.0,0.0,0.0,0.0
1704781131248564348,15078,1704781131248033696,imu_link,0.009515982878927529,0.004716598371300359,-0.8173774944035415,-0.5760045411385577,0.0,0.0,0.0,0.0,0.0,0.0,0.0,0.0,0.0,-0.05707226654021458,-0.013788101090755204,-0.09861110273767962,0.0,0.0,0.0,0.0,0.0,0.0,0.0,0.0,0.0,-0.31479346499999994,-1.50237878,9.5516771,0.0,0.0,0.0,0.0,0.0,0.0,0.0,0.0,0.0
1704781131348489704,15079,1704781131348065831,imu_link,0.007851824282766633,0.0065145798937200974,-0.8145946069838084,-0.5799409757700653,0.0,0.0,0.0,0.0,0.0,0.0,0.0,0.0,0.0,0.030194196059501903,-0.032812189937493394,-0.091106186954104,0.0,0.0,0.0,0.0,0.0,0.0,0.0,0.0,0.0,0.21574629999999997,-0.46483520999999994,9.389867375,0.0,0.0,0.0,0.0,0.0,0.0,0.0,0.0,0.0
1704781131448740725,15080,1704781131448278594,imu_link,0.008213890540119478,0.005594605380473476,-0.8119091320219045,-0.5836992322525952,0.0,0.0,0.0,0.0,0.0,0.0,0.0,0.0,0.0,-0.04817108735504349,0.07086036763096977,-0.10402162341886204,0.0,0.0,0.0,0.0,0.0,0.0,0.0,0.0,0.0,-0.306948145,0.60605097,10.890284825,0.0,0.0,0.0,0.0,0.0,0.0,0.0,0.0,0.0
1704781131550491969,15081,1704781131549771625,imu_link,0.01743831080611684,0.008246696731272127,-0.8085481226023539,-0.5881137906438352,0.0,0.0,0.0,0.0,0.0,0.0,0.0,0.0,0.0,-0.11868238913561441,0.14625859131712485,-0.0973893722612836,0.0,0.0,0.0,0.0,0.0,0.0,0.0,0.0,0.0,0.34617474499999995,-0.93751574,7.527584539999999,0.0,0.0,0.0,0.0,0.0,0.0,0.0,0.0,0.0
1704781131648305882,15082,1704781131647979610,imu_link,0.012838740734147387,0.007891231886942194,-0.805728704680579,-0.5920930244897538,0.0,0.0,0.0,0.0,0.0,0.0,0.0,0.0,0.0,0.08831366015091306,-0.31695179216217023,-0.1059414855960558,0.0,0.0,0.0,0.0,0.0,0.0,0.0,0.0,0.0,-0.81591328,-2.044686525,11.556156359999997,0.0,0.0,0.0,0.0,0.0,0.0,0.0,0.0,0.0
1704781131748409252,15083,1704781131748171602,imu_link,0.008456389944264928,0.005675765553994061,-0.8026911953226548,-0.5963079071301791,0.0,0.0,0.0,0.0,0.0,0.0,0.0,0.0,0.0,0.15271630954950383,0.2488839513343914,-0.09128071987930345,0.0,0.0,0.0,0.0,0.0,0.0,0.0,0.0,0.0,0.24418558499999998,0.8973084749999999,7.977709774999999,0.0,0.0,0.0,0.0,0.0,0.0,0.0,0.0,0.0
1704781131848649642,15084,1704781131848334646,imu_link,0.009369905779160387,0.004211079649603846,-0.8002974999675214,-0.5995151234285999,0.0,0.0,0.0,0.0,0.0,0.0,0.0,0.0,0.0,-0.055326937288220246,-0.1837831702350029,-0.06387905062299247,0.0,0.0,0.0,0.0,0.0,0.0,0.0,0.0,0.0,-0.46091255,0.41384063,11.77974798,0.0,0.0,0.0,0.0,0.0,0.0,0.0,0.0,0.0
1704781131948885561,15085,1704781131948456460,imu_link,0.010566318157841353,0.007329215025223746,-0.797915780269375,-0.6026317641186995,0.0,0.0,0.0,0.0,0.0,0.0,0.0,0.0,0.0,0.028623399732707,0.16249015336067207,-0.10279989294246601,0.0,0.0,0.0,0.0,0.0,0.0,0.0,0.0,0.0,0.47660318999999995,-0.9257477599999999,7.160815829999999,0.0,0.0,0.0,0.0,0.0,0.0,0.0,0.0,0.0
1704781132048390950,15086,1704781132047838317,imu_link,0.011717064579341685,0.005000293722907874,-0.7950279168490704,-0.6064390479602676,0.0,0.0,0.0,0.0,0.0,0.0,0.0,0.0,0.0,-0.014486232791552934,-0.1153662635568252,-0.07888888219014369,0.0,0.0,0.0,0.0,0.0,0.0,0.0,0.0,0.0,-0.228494945,-0.6148769550000001,12.730993029999999,0.0,0.0,0.0,0.0,0.0,0.0,0.0,0.0,0.0
1704781132148311079,15087,1704781132147922228,imu_link,0.009367537106759052,0.0025982833935212246,-0.7930777731759986,-0.6090428095513154,0.0,0.0,0.0,0.0,0.0,0.0,0.0,0.0,0.0,0.04537856055185257,0.08848819307611251,-0.07295476273336296,0.0,0.0,0.0,0.0,0.0,0.0,0.0,0.0,0.0,-0.0392266,0.40991796999999996,8.94170347,0.0,0.0,0.0,0.0,0.0,0.0,0.0,0.0,0.0
1704781132248451037,15088,1704781132248098736,imu_link,0.010442206458033686,0.002507474247870043,-0.7905181112145707,-0.6123445016809832,0.0,0.0,0.0,0.0,0.0,0.0,0.0,0.0,0.0,-0.03961897402027128,-0.05899212871740834,-0.07347836150896127,0.0,0.0,0.0,0.0,0.0,0.0,0.0,0.0,0.0,-0.340290755,0.05687856999999999,10.533322765,0.0,0.0,0.0,0.0,0.0,0.0,0.0,0.0,0.0
1704781132348208144,15089,1704781132347993754,imu_link,0.010281600016992624,0.0028287337796231897,-0.788697403932722,-0.6146891019011801,0.0,0.0,0.0,0.0,0.0,0.0,0.0,0.0,0.0,0.06213372137099814,0.06318091892219473,-0.04328416544945937,0.0,0.0,0.0,0.0,0.0,0.0,0.0,0.0,0.0,0.11964113,-1.02773692,8.84755963,0.0,0.0,0.0,0.0,0.0,0.0,0.0,0.0,0.0
1704781132447797218,15090,1704781132447410855,imu_link,0.011267456246953252,0.0003680157689487972,-0.7868698102777832,-0.6170160538166916,0.0,0.0,0.0,0.0,0.0,0.0,0.0,0.0,0.0,0.013264502315156903,0.010471975511965976,-0.06894050545377602,0.0,0.0,0.0,0.0,0.0,0.0,0.0,0.0,0.0,-0.32558077999999996,0.257914895,10.527438774999998,0.0,0.0,0.0,0.0,0.0,0.0,0.0,0.0,0.0
1704781132547665791,15091,1704781132547424313,imu_link,0.009153236058182593,0.0008848261578824831,-0.7844989186073934,-0.6200619985583411,0.0,0.0,0.0,0.0,0.0,0.0,0.0,0.0,0.0,-0.07260569688296412,0.00471238898038469,-0.10105456369047167,0.0,0.0,0.0,0.0,0.0,0.0,0.0,0.0,0.0,0.36088472,0.811009955,8.80441037,0.0,0.0,0.0,0.0,0.0,0.0,0.0,0.0,0.0
1704781132647762924,15092,1704781132647548409,imu_link,0.013737082295402964,-0.00013446880509336654,-0.7815583464288666,-0.6236808684058904,0.0,0.0,0.0,0.0,0.0,0.0,0.0,0.0,0.0,-0.04066617157146788,-0.012042771838760872,-0.056548667764616284,0.0,0.0,0.0,0.0,0.0,0.0,0.0,0.0,0.0,-0.86102387,-0.46287387999999996,11.911157089999998,0.0,0.0,0.0,0.0,0.0,0.0,0.0,0.0,0.0
1704781132747952251,15093,1704781132747747576,imu_link,0.011301810748772186,0.003913138680072827,-0.7801966265919836,-0.6254200030970856,0.0,0.0,0.0,0.0,0.0,0.0,0.0,0.0,0.0,0.06998770300497262,0.004537856055185257,-0.051487212933832724,0.0,0.0,0.0,0.0,0.0,0.0,0.0,0.0,0.0,0.30792880999999994,-0.64135491,8.70634387,0.0,0.0,0.0,0.0,0.0,0.0,0.0,0.0,0.0
1704781132848812050,15094,1704781132848278297,imu_link,0.013084887919906252,0.0006697484660281383,-0.7789964370599777,-0.6268914484924611,0.0,0.0,0.0,0.0,0.0,0.0,0.0,0.0,0.0,0.022514747350726852,-0.004537856055185257,-0.014835298641951801,0.0,0.0,0.0,0.0,0.0,0.0,0.0,0.0,0.0,-0.679600845,0.33146476999999996,10.762798375,0.0,0.0,0.0,0.0,0.0,0.0,0.0,0.0,0.0
1704781132948568977,15095,1704781132948204349,imu_link,0.010684670580044606,0.004505656822670409,-0.7789379373769127,-0.6269938010747736,0.0,0.0,0.0,0.0,0.0,0.0,0.0,0.0,0.0,-0.055326937288220246,-0.05742133239061344,-0.0022689280275926286,0.0,0.0,0.0,0.0,0.0,0.0,0.0,0.0,0.0,-0.13533177,-0.17848102999999998,9.218250999999999,0.0,0.0,0.0,0.0,0.0,0.0,0.0,0.0,0.0
1704781133048015937,15096,1704781133047598653,imu_link,0.010649378231108963,0.0025243333913535946,-0.7794370315528147,-0.6263849713461815,0.0,0.0,0.0,0.0,0.0,0.0,0.0,0.0,0.0,-0.007853981633974483,0.03944444109507184,0.00890117918517108,0.0,0.0,0.0,0.0,0.0,0.0,0.0,0.0,0.0,-0.15004174499999998,-0.9649743599999999,10.829483595,0.0,0.0,0.0,0.0,0.0,0.0,0.0,0.0,0.0
1704781133147463359,15097,1704781133147300527,imu_link,0.008029295142872789,0.0009357497845754333,-0.7794423478976256,-0.626421807646961,0.0,0.0,0.0,0.0,0.0,0.0,0.0,0.0,0.0,0.015533430342749534,-0.0024434609527920616,0.003490658503988659,0.0,0.0,0.0,0.0,0.0,0.0,0.0,0.0,0.0,0.028439284999999995,0.81591328,9.480088555,0.0,0.0,0.0,0.0,0.0,0.0,0.0,0.0,0.0
1704781133248159170,15098,1704781133247792785,imu_link,0.00783808535274601,0.000981174821238376,-0.7797704343199079,-0.6260157118431737,0.0,0.0,0.0,0.0,0.0,0.0,0.0,0.0,0.0,-0.08988445647770799,-0.061086523819801536,-0.004363323129985824,0.0,0.0,0.0,0.0,0.0,0.0,0.0,0.0,0.0,-0.35500073,0.301064155,10.209703314999999,0.0,0.0,0.0,0.0,0.0,0.0,0.0,0.0,0.0
1704781133347995919,15099,1704781133347747282,imu_link,0.007448618613973744,0.0034181504910829504,-0.7794926628913971,-0.6263577434872527,0.0,0.0,0.0,0.0,0.0,0.0,0.0,0.0,0.0,0.016231562043547268,0.020071286397934786,0.0013962634015954637,0.0,0.0,0.0,0.0,0.0,0.0,0.0,0.0,0.0,0.132389775,-0.846313895,9.82430197,0.0,0.0,0.0,0.0,0.0,0.0,0.0,0.0,0.0
1704781133447133496,15100,1704781133446776489,imu_link,0.00773152481988934,0.002522082669256054,-0.7798230425113819,-0.6259471902575012,0.0,0.0,0.0,0.0,0.0,0.0,0.0,0.0,0.0,0.014660765716752367,0.0019198621771937623,0.015009831567151233,0.0,0.0,0.0,0.0,0.0,0.0,0.0,0.0,0.0,0.065704555,-0.016671304999999997,10.397990994999999,0.0,0.0,0.0,0.0,0.0,0.0,0.0,0.0,0.0
1704781133547747857,15101,1704781133547401438,imu_link,0.007146855558017084,0.0033271493102416164,-0.7798210802637726,-0.6259528219517371,0.0,0.0,0.0,0.0,0.0,0.0,0.0,0.0,0.0,-0.02775073510670984,-0.023387411976724018,-0.012391837689159739,0.0,0.0,0.0,0.0,0.0,0.0,0.0,0.0,0.0,-0.038245934999999995,0.43639592499999996,9.528141139999999,0.0,0.0,0.0,0.0,0.0,0.0,0.0,0.0,0.0
1704781133648118036,15102,1704781133647585213,imu_link,0.010013122901797103,0.003253880303125533,-0.7789437682906563,-0.6270053871171113,0.0,0.0,0.0,0.0,0.0,0.0,0.0,0.0,0.0,0.03159045946109736,0.008552113334772213,-0.010995574287564275,0.0,0.0,0.0,0.0,0.0,0.0,0.0,0.0,0.0,-0.36382671499999997,-0.912999115,9.85764458,0.0,0.0,0.0,0.0,0.0,0.0,0.0,0.0,0.0
1704781133747893267,15103,1704781133747492350,imu_link,0.0063740061141049666,0.004169523114246416,-0.7794354305698995,-0.6264362670658306,0.0,0.0,0.0,0.0,0.0,0.0,0.0,0.0,0.0,0.015533430342749534,-0.002967059728390361,0.014660765716752367,0.0,0.0,0.0,0.0,0.0,0.0,0.0,0.0,0.0,0.395207995,-0.13925443,10.19303201,0.0,0.0,0.0,0.0,0.0,0.0,0.0,0.0,0.0
1704781133847397698,15104,1704781133846941805,imu_link,0.007675749980515176,0.0013324589451526804,-0.7794972131712631,-0.6263572479612816,0.0,0.0,0.0,0.0,0.0,0.0,0.0,0.0,0.0,-0.027401669256310976,0.024260076602721177,-0.008028514559173916,0.0,0.0,0.0,0.0,0.0,0.0,0.0,0.0,0.0,-0.228494945,0.29321883499999996,9.075073909999999,0.0,0.0,0.0,0.0,0.0,0.0,0.0,0.0,0.0
1704781133947454964,15105,1704781133946990509,imu_link,0.007532543405305453,0.003796943031583262,-0.7792723954649746,-0.6266285803246948,0.0,0.0,0.0,0.0,0.0,0.0,0.0,0.0,0.0,-0.04084070449666731,-0.038397243543875255,-0.008203047484373348,0.0,0.0,0.0,0.0,0.0,0.0,0.0,0.0,0.0,-0.10983448,-0.654103555,10.43035294,0.0,0.0,0.0,0.0,0.0,0.0,0.0,0.0,0.0
1704781134047636027,15106,1704781134047149406,imu_link,0.007843089500554814,0.0026513442442571014,-0.7792760857755441,-0.6266260754701577,0.0,0.0,0.0,0.0,0.0,0.0,0.0,0.0,0.0,0.044331363000655974,0.027925268031909273,0.0036651914291880917,0.0,0.0,0.0,0.0,0.0,0.0,0.0,0.0,0.0,-0.12944777999999998,-0.255953565,9.627188304999999,0.0,0.0,0.0,0.0,0.0,0.0,0.0,0.0,0.0
1704781134147669428,15107,1704781134147243767,imu_link,0.00690320951655248,0.00273490195670358,-0.7792219884229276,-0.626704044001534,0.0,0.0,0.0,0.0,0.0,0.0,0.0,0.0,0.0,-0.00471238898038469,-0.028274333882308142,-0.010995574287564275,0.0,0.0,0.0,0.0,0.0,0.0,0.0,0.0,0.0,0.020593965,0.250069575,9.810572659999998,0.0,0.0,0.0,0.0,0.0,0.0,0.0,0.0,0.0
1704781134247961330,15108,1704781134247510185,imu_link,0.008309762639398347,0.0029427444801795643,-0.7787275517383022,-0.6273003174425078,0.0,0.0,0.0,0.0,0.0,0.0,0.0,0.0,0.0,0.012042771838760872,-0.007504915783575617,-0.0158824961931484,0.0,0.0,0.0,0.0,0.0,0.0,0.0,0.0,0.0,-0.24124358999999998,-0.5893796649999999,9.513431164999998,0.0,0.0,0.0,0.0,0.0,0.0,0.0,0.0,0.0
1704781134348031627,15109,1704781134347620207,imu_link,0.00783106061492896,0.0022056952256245144,-0.7785108635203809,-0.6275783973169948,0.0,0.0,0.0,0.0,0.0,0.0,0.0,0.0,0.0,0.034557519189487726,0.038397243543875255,0.007853981633974483,0.0,0.0,0.0,0.0,0.0,0.0,0.0,0.0,0.0,0.08433718999999999,-0.19221033999999998,10.1596894,0.0,0.0,0.0,0.0,0.0,0.0,0.0,0.0,0.0
1704781134447492738,15110,1704781134446898327,imu_link,0.0077852721315383715,0.0008975016185421968,-0.7785123780444267,-0.6275803225566384,0.0,0.0,0.0,0.0,0.0,0.0,0.0,0.0,0.0,-0.016406094968746697,-0.014660765716752367,-0.006981317007977318,0.0,0.0,0.0,0.0,0.0,0.0,0.0,0.0,0.0,-0.09904716499999999,0.24516625,9.085861224999999,0.0,0.0,0.0,0.0,0.0,0.0,0.0,0.0,0.0
1704781134547532070,15111,1704781134547065601,imu_link,0.007955501802339964,0.002212614818167466,-0.7780176048623405,-0.6281882049601111,0.0,0.0,0.0,0.0,0.0,0.0,0.0,0.0,0.0,-0.042411500823462206,-0.0010471975511965976,-0.0158824961931484,0.0,0.0,0.0,0.0,0.0,0.0,0.0,0.0,0.0,-0.263798885,-0.37265269999999995,10.328363779999998,0.0,0.0,0.0,0.0,0.0,0.0,0.0,0.0,0.0
1704781134647234600,15112,1704781134646756704,imu_link,0.00867441624891823,0.0012909170029139871,-0.7776341671760483,-0.6286558598123824,0.0,0.0,0.0,0.0,0.0,0.0,0.0,0.0,0.0,0.017627825445142728,0.04084070449666731,-0.00715584993317675,0.0,0.0,0.0,0.0,0.0,0.0,0.0,0.0,0.0,-0.12748644999999997,-0.518771785,9.927271795,0.0,0.0,0.0,0.0,0.0,0.0,0.0,0.0,0.0
1704781134747798998,15113,1704781134747431554,imu_link,0.00871050053258619,0.0003647254433033868,-0.7776889812998685,-0.6285887705969585,0.0,0.0,0.0,0.0,0.0,0.0,0.0,0.0,0.0,-0.03560471674068432,-0.017976891295541593,0.0020943951023931952,0.0,0.0,0.0,0.0,0.0,0.0,0.0,0.0,0.0,-0.128467115,0.7011754749999999,9.236883635,0.0,0.0,0.0,0.0,0.0,0.0,0.0,0.0,0.0
1704781134846980786,15114,1704781134846558933,imu_link,0.009931201703016224,0.001729854097347756,-0.7773577706973983,-0.6289779608014157,0.0,0.0,0.0,0.0,0.0,0.0,0.0,0.0,0.0,-0.01291543646475804,0.016231562043547268,-0.018500490071139894,0.0,0.0,0.0,0.0,0.0,0.0,0.0,0.0,0.0,-0.228494945,-0.6874461649999999,10.184206025,0.0,0.0,0.0,0.0,0.0,0.0,0.0,0.0,0.0
1704781134946908245,15115,1704781134946601438,imu_link,0.009776655984332382,0.0008414287787487217,-0.7771388442472285,-0.6292526724277429,0.0,0.0,0.0,0.0,0.0,0.0,0.0,0.0,0.0,0.03944444109507184,-0.012740903539558606,-0.0020943951023931952,0.0,0.0,0.0,0.0,0.0,0.0,0.0,0.0,0.0,-0.30792880999999994,-0.08433718999999999,9.770365394999999,0.0,0.0,0.0,0.0,0.0,0.0,0.0,0.0,0.0
1704781135046851491,15116,1704781135046436076,imu_link,0.008514713368566471,0.001635702033070141,-0.7768654542354687,-0.6296069330547663,0.0,0.0,0.0,0.0,0.0,0.0,0.0,0.0,0.0,-0.03298672286269282,-0.0012217304763960308,-0.019547687622336492,0.0,0.0,0.0,0.0,0.0,0.0,0.0,0.0,0.0,0.14709974999999997,0.38049802,9.707602835,0.0,0.0,0.0,0.0,0.0,0.0,0.0,0.0,0.0
1704781135147511001,15117,1704781135147194374,imu_link,0.010480340926921483,0.0018302537791582722,-0.7762028249279659,-0.6303935177323804,0.0,0.0,0.0,0.0,0.0,0.0,0.0,0.0,0.0,-0.0006981317007977319,0.0027925268031909274,-0.010471975511965976,0.0,0.0,0.0,0.0,0.0,0.0,0.0,0.0,0.0,-0.4550285599999999,-0.7864933299999999,10.45585023,0.0,0.0,0.0,0.0,0.0,0.0,0.0,0.0,0.0
1704781135247823022,15118,1704781135247303739,imu_link,0.009147570598200998,0.0021239791704051056,-0.7760390677126296,-0.6306149189864979,0.0,0.0,0.0,0.0,0.0,0.0,0.0,0.0,0.0,0.02495820830351891,0.024434609527920613,-0.013439035240356337,0.0,0.0,0.0,0.0,0.0,0.0,0.0,0.0,0.0,-0.10787314999999999,-0.27262486999999996,10.088100854999999,0.0,0.0,0.0,0.0,0.0,0.0,0.0,0.0,0.0
1704781135347843839,15119,1704781135347418769,imu_link,0.008640738838422181,0.0016312066224087609,-0.7755999590292519,-0.6311635131652524,0.0,0.0,0.0,0.0,0.0,0.0,0.0,0.0,0.0,-0.0008726646259971648,-0.05515240436302082,-0.012391837689159739,0.0,0.0,0.0,0.0,0.0,0.0,0.0,0.0,0.0,-0.08237586,-0.106892485,9.129010484999998,0.0,0.0,0.0,0.0,0.0,0.0,0.0,0.0,0.0
1704781135446945160,15120,1704781135446510299,imu_link,0.009039858998060769,0.003210676053016444,-0.7747691564779755,-0.6321714377279188,0.0,0.0,0.0,0.0,0.0,0.0,0.0,0.0,0.0,0.023736477827122886,0.03298672286269282,-0.020594885173533087,0.0,0.0,0.0,0.0,0.0,0.0,0.0,0.0,0.0,0.07649186999999999,-0.55505639,10.01847364,0.0,0.0,0.0,0.0,0.0,0.0,0.0,0.0,0.0
1704781135547001080,15121,1704781135546582119,imu_link,0.008274815002745798,0.0015811351499691833,-0.7746632644142826,-0.6323178427146549,0.0,0.0,0.0,0.0,0.0,0.0,0.0,0.0,0.0,0.06579891280018622,-0.01361356816555577,0.005061454830783556,0.0,0.0,0.0,0.0,0.0,0.0,0.0,0.0,0.0,-0.21868829499999998,-0.14709974999999997,9.57521306,0.0,0.0,0.0,0.0,0.0,0.0,0.0,0.0,0.0
1704781135647213642,15122,1704781135646836853,imu_link,0.00847785647251709,0.0014141009191938766,-0.7745528446379402,-0.6324508021431364,0.0,0.0,0.0,0.0,0.0,0.0,0.0,0.0,0.0,-0.016929693744344998,0.04258603374866164,-0.01361356816555577,0.0,0.0,0.0,0.0,0.0,0.0,0.0,0.0,0.0,-0.0029419949999999998,0.08825984999999999,9.53598646,0.0,0.0,0.0,0.0,0.0,0.0,0.0,0.0,0.0
1704781135747279127,15123,1704781135746944643,imu_link,0.00912281267811528,0.0030239638483840407,-0.7741624844084907,-0.6329139575534393,0.0,0.0,0.0,0.0,0.0,0.0,0.0,0.0,0.0,0.023212879051524585,-0.04817108735504349,-0.009599310885968814,0.0,0.0,0.0,0.0,0.0,0.0,0.0,0.0,0.0,-0.10198916,-0.818855275,9.362408754999999,0.0,0.0,0.0,0.0,0.0,0.0,0.0,0.0,0.0
1704781135846724354,15124,1704781135846306067,imu_link,0.008621505681773082,0.00309145759418273,-0.7737205711552902,-0.6334608040761908,0.0,0.0,0.0,0.0,0.0,0.0,0.0,0.0,0.0,0.06789330790257941,0.026529004630313806,-0.014835298641951801,0.0,0.0,0.0,0.0,0.0,0.0,0.0,0.0,0.0,0.018632634999999998,-0.40305331499999997,9.929233125,0.0,0.0,0.0,0.0,0.0,0.0,0.0,0.0,0.0
1704781135946725223,15125,1704781135946371254,imu_link,0.008726891826803026,0.002663950431592859,-0.7734452570503727,-0.6337974274746027,0.0,0.0,0.0,0.0,0.0,0.0,0.0,0.0,0.0,-0.01117010721276371,-0.02199114857512855,-0.005934119456780722,0.0,0.0,0.0,0.0,0.0,0.0,0.0,0.0,0.0,-0.222610955,0.287334845,9.592865029999999,0.0,0.0,0.0,0.0,0.0,0.0,0.0,0.0,0.0
1704781136046989444,15126,1704781136046496173,imu_link,0.009165794507050497,0.0038806628017337484,-0.7731086840673115,-0.6341954677281949,0.0,0.0,0.0,0.0,0.0,0.0,0.0,0.0,0.0,-0.033859387488689996,-0.0015707963267948967,-0.010297442586766544,0.0,0.0,0.0,0.0,0.0,0.0,0.0,0.0,0.0,0.10395048999999999,-0.6099736299999999,10.307769814999999,0.0,0.0,0.0,0.0,0.0,0.0,0.0,0.0,0.0
1704781136147207296,15127,1704781136146764758,imu_link,0.008453811496493721,0.0035608531931229323,-0.772999914404347,-0.634339803044544,0.0,0.0,0.0,0.0,0.0,0.0,0.0,0.0,0.0,0.02391101075232232,-0.00715584993317675,0.0041887902047863905,0.0,0.0,0.0,0.0,0.0,0.0,0.0,0.0,0.0,-0.11964113,-0.142196425,9.762520075,0.0,0.0,0.0,0.0,0.0,0.0,0.0,0.0,0.0
1704781136247346288,15128,1704781136246934866,imu_link,0.008652110460913243,0.004074051421285774,-0.7728314670580612,-0.63453925537706,0.0,0.0,0.0,0.0,0.0,0.0,0.0,0.0,0.0,-0.011519173063162576,0.018675022996339326,-0.016057029118347832,0.0,0.0,0.0,0.0,0.0,0.0,0.0,0.0,0.0,-0.026477955,0.236340265,9.71446749,0.0,0.0,0.0,0.0,0.0,0.0,0.0,0.0,0.0
1704781136347587107,15129,1704781136347137260,imu_link,0.008359416981461781,0.004539019950201655,-0.772663230058725,-0.6347448702910796,0.0,0.0,0.0,0.0,0.0,0.0,0.0,0.0,0.0,-0.030543261909900768,-0.02548180707911721,-0.0017453292519943296,0.0,0.0,0.0,0.0,0.0,0.0,0.0,0.0,0.0,-0.053936574999999994,-0.12552512,10.6892485,0.0,0.0,0.0,0.0,0.0,0.0,0.0,0.0,0.0
1704781136446765821,15130,1704781136446306370,imu_link,0.008240102151542418,0.005765813141521414,-0.7725449380356968,-0.634880441367326,0.0,0.0,0.0,0.0,0.0,0.0,0.0,0.0,0.0,-0.012042771838760872,-0.03159045946109736,-0.004537856055185257,0.0,0.0,0.0,0.0,0.0,0.0,0.0,0.0,0.0,0.047071919999999996,-0.140235095,8.5121722,0.0,0.0,0.0,0.0,0.0,0.0,0.0,0.0,0.0
1704781136546779067,15131,1704781136546407279,imu_link,0.00795950012897097,0.00610887741299217,-0.7724317493760448,-0.6350185198325425,0.0,0.0,0.0,0.0,0.0,0.0,0.0,0.0,0.0,-0.05864306286700947,-0.014137166941154071,-0.02565634000431664,0.0,0.0,0.0,0.0,0.0,0.0,0.0,0.0,0.0,-0.49817781999999994,-0.22457228499999998,12.169071984999999,0.0,0.0,0.0,0.0,0.0,0.0,0.0,0.0,0.0
1704781136646970798,15132,1704781136646525186,imu_link,0.006362344504087564,0.004709435283633333,-0.7721091219352898,-0.6354406704138762,0.0,0.0,0.0,0.0,0.0,0.0,0.0,0.0,0.0,0.012740903539558606,0.015184364492350668,-0.0015707963267948967,0.0,0.0,0.0,0.0,0.0,0.0,0.0,0.0,0.0,-0.41972461999999994,-0.4707192,9.80272734,0.0,0.0,0.0,0.0,0.0,0.0,0.0,0.0,0.0
1704781136747276267,15133,1704781136746836089,imu_link,0.0042849804111898355,0.004385002535394164,-0.7722777898752515,-0.6352554021502195,0.0,0.0,0.0,0.0,0.0,0.0,0.0,0.0,0.0,-0.08744099552491591,0.03298672286269282,-0.017453292519943295,0.0,0.0,0.0,0.0,0.0,0.0,0.0,0.0,0.0,1.052253545,0.6492002299999999,8.656329955,0.0,0.0,0.0,0.0,0.0,0.0,0.0,0.0,0.0
1704781136846646242,15134,1704781136846089997,imu_link,0.0111878177259472,0.002293213675357504,-0.7702810561290672,-0.6376022807944299,0.0,0.0,0.0,0.0,0.0,0.0,0.0,0.0,0.0,-0.11623892818282235,0.08307767239493008,-0.08220500776893291,0.0,0.0,0.0,0.0,0.0,0.0,0.0,0.0,0.0,-0.7580540449999998,-0.0980665,13.451781804999998,0.0,0.0,0.0,0.0,0.0,0.0,0.0,0.0,0.0
1704781136946445961,15135,1704781136946068981,imu_link,0.01045740406897603,0.00423565680062549,-0.7682684692387849,-0.6400283283457848,0.0,0.0,0.0,0.0,0.0,0.0,0.0,0.0,0.0,0.01780235837034216,-0.028797932657906436,-0.05235987755982988,0.0,0.0,0.0,0.0,0.0,0.0,0.0,0.0,0.0,0.006864655,-0.8394492399999999,7.6158443899999995,0.0,0.0,0.0,0.0,0.0,0.0,0.0,0.0,0.0
1704781137046642297,15136,1704781137046223518,imu_link,0.01110066346119705,0.0026564843341096243,-0.7667632957132818,-0.641828455826485,0.0,0.0,0.0,0.0,0.0,0.0,0.0,0.0,0.0,-0.05811946409141117,0.041713369122664476,-0.056548667764616284,0.0,0.0,0.0,0.0,0.0,0.0,0.0,0.0,0.0,-0.35107806999999996,0.8316039199999999,11.96607433,0.0,0.0,0.0,0.0,0.0,0.0,0.0,0.0,0.0
1704781137146847233,15137,1704781137146479478,imu_link,0.012751354699312323,0.004429529301611753,-0.7645097241983859,-0.6444708401701402,0.0,0.0,0.0,0.0,0.0,0.0,0.0,0.0,0.0,-0.051487212933832724,-0.08621926504851989,-0.05951572749300663,0.0,0.0,0.0,0.0,0.0,0.0,0.0,0.0,0.0,-0.742363405,-0.552114395,7.966922459999999,0.0,0.0,0.0,0.0,0.0,0.0,0.0,0.0,0.0
1704781137247051328,15138,1704781137246588581,imu_link,0.012150210957016563,0.00503543766744158,-0.7632682628997474,-0.6459478118170223,0.0,0.0,0.0,0.0,0.0,0.0,0.0,0.0,0.0,0.030368728984701335,0.2319542575900464,-0.03752457891787808,0.0,0.0,0.0,0.0,0.0,0.0,0.0,0.0,0.0,0.518771785,-0.6119349599999999,10.9246081,0.0,0.0,0.0,0.0,0.0,0.0,0.0,0.0,0.0
1704781137347245209,15139,1704781137346726821,imu_link,0.01161141303307452,-0.0019733471435527455,-0.7616381231774451,-0.6478955550944652,0.0,0.0,0.0,0.0,0.0,0.0,0.0,0.0,0.0,0.13159782560037245,-0.14189526818713902,-0.04729842272904633,0.0,0.0,0.0,0.0,0.0,0.0,0.0,0.0,0.0,-0.962032365,-0.167693715,8.63573599,0.0,0.0,0.0,0.0,0.0,0.0,0.0,0.0,0.0
1704781137446518536,15140,1704781137446076048,imu_link,0.005332559377429661,0.003020343391261976,-0.760512811567915,-0.6492940048832655,0.0,0.0,0.0,0.0,0.0,0.0,0.0,0.0,0.0,-0.07504915783575616,-0.04747295565424577,-0.024434609527920613,0.0,0.0,0.0,0.0,0.0,0.0,0.0,0.0,0.0,0.161809725,1.2640771849999999,10.403874984999998,0.0,0.0,0.0,0.0,0.0,0.0,0.0,0.0,0.0
1704781137546439528,15141,1704781137546051149,imu_link,0.009682034815419245,0.00365551162887015,-0.7593736064456567,-0.6505725334428754,0.0,0.0,0.0,0.0,0.0,0.0,0.0,0.0,0.0,-0.02129301687433082,0.060388392119003806,-0.0317649923862968,0.0,0.0,0.0,0.0,0.0,0.0,0.0,0.0,0.0,-0.32460011499999997,-1.2778064949999999,9.18883105,0.0,0.0,0.0,0.0,0.0,0.0,0.0,0.0,0.0
1704781137646940886,15142,1704781137646416721,imu_link,0.007348245830387061,0.004272718849177912,-0.7587472111079516,-0.6513297297012915,0.0,0.0,0.0,0.0,0.0,0.0,0.0,0.0,0.0,0.07417649320975901,-0.05270894341022875,-0.0036651914291880917,0.0,0.0,0.0,0.0,0.0,0.0,0.0,0.0,0.0,0.16475172,-0.35107806999999996,10.533322765,0.0,0.0,0.0,0.0,0.0,0.0,0.0,0.0,0.0
1704781137746921886,15143,1704781137746424915,imu_link,0.008190531006090698,0.0021650561834212216,-0.758299594553581,-0.6518511736841744,0.0,0.0,0.0,0.0,0.0,0.0,0.0,0.0,0.0,0.008377580409572781,0.05881759579220891,-0.014137166941154071,0.0,0.0,0.0,0.0,0.0,0.0,0.0,0.0,0.0,-0.20397832,0.297141495,9.56540641,0.0,0.0,0.0,0.0,0.0,0.0,0.0,0.0,0.0
1704781137845984660,15144,1704781137845571352,imu_link,0.009122728809863935,0.003776692654582592,-0.7578952692618726,-0.6523015201899565,0.0,0.0,0.0,0.0,0.0,0.0,0.0,0.0,0.0,0.038397243543875255,-0.021467549799530253,0.0024434609527920616,0.0,0.0,0.0,0.0,0.0,0.0,0.0,0.0,0.0,0.122583125,-0.8678885249999999,8.313097205,0.0,0.0,0.0,0.0,0.0,0.0,0.0,0.0,0.0
1704781137946222322,15145,1704781137945797831,imu_link,0.006723833892238648,0.0027362990613227314,-0.7584126976371847,-0.6517342117672854,0.0,0.0,0.0,0.0,0.0,0.0,0.0,0.0,0.0,0.13369222070276562,0.006283185307179587,0.039968039870670144,0.0,0.0,0.0,0.0,0.0,0.0,0.0,0.0,0.0,-1.158165365,0.17063570999999997,12.59566126,0.0,0.0,0.0,0.0,0.0,0.0,0.0,0.0,0.0
1704781138046408695,15146,1704781138045994594,imu_link,0.0037592986751233226,-0.0005671367230455371,-0.7610276711942661,-0.6487082778152602,0.0,0.0,0.0,0.0,0.0,0.0,0.0,0.0,0.0,-0.05550147021341968,0.013962634015954637,0.06405358354819189,0.0,0.0,0.0,0.0,0.0,0.0,0.0,0.0,0.0,0.940457735,0.9394770699999999,5.227925115,0.0,0.0,0.0,0.0,0.0,0.0,0.0,0.0,0.0
1704781138146485595,15147,1704781138146089974,imu_link,0.011115942763497866,0.0018779835893426421,-0.7611345406742158,-0.6484960446963168,0.0,0.0,0.0,0.0,0.0,0.0,0.0,0.0,0.0,-0.06527531402458793,0.03892084231947355,-0.04031710572106901,0.0,0.0,0.0,0.0,0.0,0.0,0.0,0.0,0.0,-0.33931008999999995,-0.6874461649999999,15.00613583,0.0,0.0,0.0,0.0,0.0,0.0,0.0,0.0,0.0
1704781138246725594,15148,1704781138246300707,imu_link,0.010085835691762818,0.004807046313392809,-0.7597648904066089,-0.6501018993431517,0.0,0.0,0.0,0.0,0.0,0.0,0.0,0.0,0.0,0.06440264939859076,-0.0651007810993885,-0.02199114857512855,0.0,0.0,0.0,0.0,0.0,0.0,0.0,0.0,0.0,0.138273765,-1.11011278,7.934560515,0.0,0.0,0.0,0.0,0.0,0.0,0.0,0.0,0.0
1704781138346854064,15149,1704781138346444057,imu_link,0.008050448463746342,0.0031065840466516182,-0.7601711257245615,-0.6496656055462275,0.0,0.0,0.0,0.0,0.0,0.0,0.0,0.0,0.0,0.02565634000431664,-0.022165681500327987,0.020594885173533087,0.0,0.0,0.0,0.0,0.0,0.0,0.0,0.0,0.0,-0.16965504499999998,0.74726673,10.782411674999999,0.0,0.0,0.0,0.0,0.0,0.0,0.0,0.0,0.0
1704781138446410350,15150,1704781138445876467,imu_link,0.0070440764934038315,0.0032816880456916727,-0.760737697800788,-0.6490129171709011,0.0,0.0,0.0,0.0,0.0,0.0,0.0,0.0,0.0,-0.06736970912698112,0.03961897402027128,0.0006981317007977319,0.0,0.0,0.0,0.0,0.0,0.0,0.0,0.0,0.0,0.065704555,0.212804305,10.329344444999998,0.0,0.0,0.0,0.0,0.0,0.0,0.0,0.0,0.0
1704781138546393648,15151,1704781138545940459,imu_link,0.008723940587990963,0.004019577393626619,-0.7597131827630027,-0.650187369759135,0.0,0.0,0.0,0.0,0.0,0.0,0.0,0.0,0.0,-0.014660765716752367,-0.034732052114687155,-0.05113814708343386,0.0,0.0,0.0,0.0,0.0,0.0,0.0,0.0,0.0,-0.40207265,-0.975761675,9.68700887,0.0,0.0,0.0,0.0,0.0,0.0,0.0,0.0,0.0
1704781138646558343,15152,1704781138646094906,imu_link,0.0066739554755790576,0.0009396929224261999,-0.7585869232706572,-0.6515369944510285,0.0,0.0,0.0,0.0,0.0,0.0,0.0,0.0,0.0,0.03665191429188092,0.028797932657906436,-0.05550147021341968,0.0,0.0,0.0,0.0,0.0,0.0,0.0,0.0,0.0,-0.650180895,0.006864655,9.80665,0.0,0.0,0.0,0.0,0.0,0.0,0.0,0.0,0.0
1704781138746547011,15153,1704781138746159570,imu_link,0.004997280991728902,0.002826001293303337,-0.7549901161220576,-0.6557110380780407,0.0,0.0,0.0,0.0,0.0,0.0,0.0,0.0,0.0,-0.1117010721276371,-0.10559241974565695,-0.10786134777324957,0.0,0.0,0.0,0.0,0.0,0.0,0.0,0.0,0.0,0.36480737999999996,0.6099736299999999,8.772048425,0.0,0.0,0.0,0.0,0.0,0.0,0.0,0.0,0.0
1704781138846139928,15154,1704781138845713420,imu_link,0.006936694859561774,0.0044823803408166815,-0.7525734921865608,-0.6584564749389517,0.0,0.0,0.0,0.0,0.0,0.0,0.0,0.0,0.0,0.010297442586766544,0.0879645943005142,-0.05445427266222308,0.0,0.0,0.0,0.0,0.0,0.0,0.0,0.0,0.0,0.09414383999999999,-1.489630135,9.925310464999999,0.0,0.0,0.0,0.0,0.0,0.0,0.0,0.0,0.0
1704781138945878971,15155,1704781138945507172,imu_link,0.006429352028359458,0.002942357986347857,-0.7503930257313705,-0.6609540928806585,0.0,0.0,0.0,0.0,0.0,0.0,0.0,0.0,0.0,0.03089232776029963,-0.05637413483941684,-0.07714355293814937,0.0,0.0,0.0,0.0,0.0,0.0,0.0,0.0,0.0,-0.29223816999999996,0.24712757999999999,10.13811477,0.0,0.0,0.0,0.0,0.0,0.0,0.0,0.0,0.0
1704781139046047963,15156,1704781139045690920,imu_link,0.007999965161942586,0.0026977914904822704,-0.7475599961043919,-0.6641406287096756,0.0,0.0,0.0,0.0,0.0,0.0,0.0,0.0,0.0,0.032637657012293965,0.060039326268604934,-0.08237954069413235,0.0,0.0,0.0,0.0,0.0,0.0,0.0,0.0,0.0,-0.44620257499999993,-0.5217137799999999,9.84195394,0.0,0.0,0.0,0.0,0.0,0.0,0.0,0.0,0.0
1704781139146317690,15157,1704781139145866562,imu_link,0.004938844568717764,0.005768742906245735,-0.7444639875951485,-0.6676194279629213,0.0,0.0,0.0,0.0,0.0,0.0,0.0,0.0,0.0,-0.061959188445798695,-0.11379546723003027,-0.12130038301360589,0.0,0.0,0.0,0.0,0.0,0.0,0.0,0.0,0.0,0.406975975,-0.14513842,9.72427414,0.0,0.0,0.0,0.0,0.0,0.0,0.0,0.0,0.0
1704781139246707858,15158,1704781139246170624,imu_link,0.007547311955437267,0.0048193272304017645,-0.7409644198342591,-0.6714845796494313,0.0,0.0,0.0,0.0,0.0,0.0,0.0,0.0,0.0,-0.01902408884673819,0.055326937288220246,-0.07958701389094142,0.0,0.0,0.0,0.0,0.0,0.0,0.0,0.0,0.0,-0.39716932499999996,-0.45698989,10.144979424999999,0.0,0.0,0.0,0.0,0.0,0.0,0.0,0.0,0.0
1704781139346743590,15159,1704781139346240003,imu_link,0.007193593525227843,0.0060771021112507465,-0.7389596203893851,-0.6736839024914424,0.0,0.0,0.0,0.0,0.0,0.0,0.0,0.0,0.0,-0.015358897417550098,0.02757620218151041,-0.061086523819801536,0.0,0.0,0.0,0.0,0.0,0.0,0.0,0.0,0.0,0.303025485,-0.31479346499999994,10.27344654,0.0,0.0,0.0,0.0,0.0,0.0,0.0,0.0,0.0
1704781139445716282,15160,1704781139445348551,imu_link,0.006949072004783579,0.002149605764859257,-0.7366245375718378,-0.6762628041230747,0.0,0.0,0.0,0.0,0.0,0.0,0.0,0.0,0.0,0.04485496177625426,-0.04345869837465881,-0.07382742735936014,0.0,0.0,0.0,0.0,0.0,0.0,0.0,0.0,0.0,-0.45993188499999993,0.21476563499999998,9.850779925,0.0,0.0,0.0,0.0,0.0,0.0,0.0,0.0,0.0
1704781139546000361,15161,1704781139545589941,imu_link,0.004512156801844477,0.004504562251542551,-0.7349600391027029,-0.6780804452880728,0.0,0.0,0.0,0.0,0.0,0.0,0.0,0.0,0.0,-0.033510321638291124,0.030717794835100197,-0.03298672286269282,0.0,0.0,0.0,0.0,0.0,0.0,0.0,0.0,0.0,0.34617474499999995,0.418743955,9.511469835,0.0,0.0,0.0,0.0,0.0,0.0,0.0,0.0,0.0
1704781139646232744,15162,1704781139645801300,imu_link,0.007189310254149496,0.002503076333794554,-0.7340805387939665,-0.6790197427106937,0.0,0.0,0.0,0.0,0.0,0.0,0.0,0.0,0.0,0.011693705988362009,-0.01308996938995747,-0.030019663134302467,0.0,0.0,0.0,0.0,0.0,0.0,0.0,0.0,0.0,-0.43345393,-0.726672765,9.705641505,0.0,0.0,0.0,0.0,0.0,0.0,0.0,0.0,0.0
1704781139746200592,15163,1704781139745828228,imu_link,0.00791667586711392,0.00479152246785744,-0.7319919690158836,-0.6812504127352182,0.0,0.0,0.0,0.0,0.0,0.0,0.0,0.0,0.0,-0.0024434609527920616,0.03735004599267865,-0.054279739737023644,0.0,0.0,0.0,0.0,0.0,0.0,0.0,0.0,0.0,0.2745862,-0.44129925,9.36927341,0.0,0.0,0.0,0.0,0.0,0.0,0.0,0.0,0.0
1704781139845617536,15164,1704781139845049054,imu_link,0.007533018543958556,0.0034777602644387854,-0.7317018991925897,-0.6815742729395798,0.0,0.0,0.0,0.0,0.0,0.0,0.0,0.0,0.0,-0.019896753472735354,-0.027925268031909273,0.010821041362364843,0.0,0.0,0.0,0.0,0.0,0.0,0.0,0.0,0.0,-0.26281822,-0.061781894999999996,10.280311195,0.0,0.0,0.0,0.0,0.0,0.0,0.0,0.0,0.0
1704781139945709647,15165,1704781139945235367,imu_link,0.007176685987128827,0.0030933890761768554,-0.7315846580512653,-0.6817058120819265,0.0,0.0,0.0,0.0,0.0,0.0,0.0,0.0,0.0,-0.06300638599699529,0.005934119456780722,-0.017627825445142728,0.0,0.0,0.0,0.0,0.0,0.0,0.0,0.0,0.0,-0.14121576,0.05099458,9.51637316,0.0,0.0,0.0,0.0,0.0,0.0,0.0,0.0,0.0
1704781140046086894,15166,1704781140045579823,imu_link,0.007097353567588472,0.003642508475604469,-0.7312252149991624,-0.6820894696839781,0.0,0.0,0.0,0.0,0.0,0.0,0.0,0.0,0.0,-0.044331363000655974,0.0038397243543875246,-0.009250245035569947,0.0,0.0,0.0,0.0,0.0,0.0,0.0,0.0,0.0,-0.25693423,-0.55505639,11.508103774999999,0.0,0.0,0.0,0.0,0.0,0.0,0.0,0.0,0.0
1704781140145902649,15167,1704781140145456964,imu_link,0.005371615596788358,0.003581107510504059,-0.7310471653216902,-0.6822963897676724,0.0,0.0,0.0,0.0,0.0,0.0,0.0,0.0,0.0,0.024260076602721177,-0.005585053606381855,-0.002967059728390361,0.0,0.0,0.0,0.0,0.0,0.0,0.0,0.0,0.0,0.0196133,-0.31969678999999995,8.86913426,0.0,0.0,0.0,0.0,0.0,0.0,0.0,0.0,0.0
1704781140246264415,15168,1704781140245800914,imu_link,0.00522920807404064,0.004190809032800662,-0.7306866402172045,-0.6826801054012506,0.0,0.0,0.0,0.0,0.0,0.0,0.0,0.0,0.0,-0.017627825445142728,-0.016057029118347832,-0.017453292519943295,0.0,0.0,0.0,0.0,0.0,0.0,0.0,0.0,0.0,0.16965504499999998,0.18632634999999997,9.919426475,0.0,0.0,0.0,0.0,0.0,0.0,0.0,0.0,0.0
1704781140346341520,15169,1704781140345954044,imu_link,0.006233182244623955,0.0038466835871999736,-0.7298538286822787,-0.6835639978980054,0.0,0.0,0.0,0.0,0.0,0.0,0.0,0.0,0.0,-0.030019663134302467,0.0031415926535897933,-0.033859387488689996,0.0,0.0,0.0,0.0,0.0,0.0,0.0,0.0,0.0,-0.25497289999999995,-0.508965135,10.30090516,0.0,0.0,0.0,0.0,0.0,0.0,0.0,0.0,0.0
1704781140445340988,15170,1704781140444996331,imu_link,0.005161917178246167,0.0047293482149534175,-0.7287739911353727,-0.6847185244471823,0.0,0.0,0.0,0.0,0.0,0.0,0.0,0.0,0.0,-0.007679448708775049,-0.009075712110370514,-0.03106686068549907,0.0,0.0,0.0,0.0,0.0,0.0,0.0,0.0,0.0,0.17063570999999997,-0.14121576,9.013292015,0.0,0.0,0.0,0.0,0.0,0.0,0.0,0.0,0.0
1704781140545537062,15171,1704781140545086959,imu_link,0.0051925346271139055,0.00386090592400749,-0.7281214612744515,-0.6854175870381133,0.0,0.0,0.0,0.0,0.0,0.0,0.0,0.0,0.0,0.027401669256310976,-0.017453292519943295,0.005235987755982988,0.0,0.0,0.0,0.0,0.0,0.0,0.0,0.0,0.0,-0.0058839899999999995,-0.43345393,9.719370815,0.0,0.0,0.0,0.0,0.0,0.0,0.0,0.0,0.0
1704781140645828383,15172,1704781140645511396,imu_link,0.005549054668930367,0.004482566791431571,-0.7273398759992692,-0.6862403510204054,0.0,0.0,0.0,0.0,0.0,0.0,0.0,0.0,0.0,0.033859387488689996,0.01902408884673819,-0.04223696789826277,0.0,0.0,0.0,0.0,0.0,0.0,0.0,0.0,0.0,-0.06276256,-0.13337043999999998,10.385242349999999,0.0,0.0,0.0,0.0,0.0,0.0,0.0,0.0,0.0
1704781140745951686,15173,1704781140745544227,imu_link,0.006368293908324416,0.00430306829380573,-0.7254215748698676,-0.6882619175497633,0.0,0.0,0.0,0.0,0.0,0.0,0.0,0.0,0.0,0.06632251157578452,0.04363323129985824,-0.049567350756638956,0.0,0.0,0.0,0.0,0.0,0.0,0.0,0.0,0.0,0.02549729,-0.430511935,9.674260225,0.0,0.0,0.0,0.0,0.0,0.0,0.0,0.0,0.0
1704781140845264828,15174,1704781140844863894,imu_link,0.006131714095870372,0.004163056579217723,-0.7242802308863382,-0.6894658934199699,0.0,0.0,0.0,0.0,0.0,0.0,0.0,0.0,0.0,-0.00034906585039886593,-0.03892084231947355,-0.015533430342749534,0.0,0.0,0.0,0.0,0.0,0.0,0.0,0.0,0.0,0.026477955,0.034323275,9.539909119999999,0.0,0.0,0.0,0.0,0.0,0.0,0.0,0.0,0.0
1704781140945135841,15175,1704781140944624437,imu_link,0.005426104237921575,0.0027853467250815124,-0.7239857231690076,-0.6897879905332285,0.0,0.0,0.0,0.0,0.0,0.0,0.0,0.0,0.0,0.026529004630313806,0.0010471975511965976,-0.011868238913561443,0.0,0.0,0.0,0.0,0.0,0.0,0.0,0.0,0.0,-0.369710705,-0.11964113,10.4146623,0.0,0.0,0.0,0.0,0.0,0.0,0.0,0.0,0.0
1704781141045940290,15176,1704781141045472489,imu_link,0.0062669669707228655,0.003910051192470899,-0.7232578193695622,-0.6905386038053527,0.0,0.0,0.0,0.0,0.0,0.0,0.0,0.0,0.0,-0.03752457891787808,0.027052603405912107,-0.030368728984701335,0.0,0.0,0.0,0.0,0.0,0.0,0.0,0.0,0.0,0.21770762999999999,-0.18632634999999997,9.306510849999999,0.0,0.0,0.0,0.0,0.0,0.0,0.0,0.0,0.0
1704781141145443657,15177,1704781141145158051,imu_link,0.006717583387939141,0.003235007899675669,-0.7225978544860527,-0.6912284350990405,0.0,0.0,0.0,0.0,0.0,0.0,0.0,0.0,0.0,-0.014486232791552934,0.026878070480712675,-0.006806784082777885,0.0,0.0,0.0,0.0,0.0,0.0,0.0,0.0,0.0,-0.024516625,-0.338329425,9.895890515,0.0,0.0,0.0,0.0,0.0,0.0,0.0,0.0,0.0
1704781141245743715,15178,1704781141245259004,imu_link,0.006681428863599364,0.002177895654513219,-0.721877460046607,-0.6919852223534242,0.0,0.0,0.0,0.0,0.0,0.0,0.0,0.0,0.0,0.00017453292519943296,-0.01815142422074103,-0.03089232776029963,0.0,0.0,0.0,0.0,0.0,0.0,0.0,0.0,0.0,-0.25987622499999996,0.3138128,9.29866553,0.0,0.0,0.0,0.0,0.0,0.0,0.0,0.0,0.0
1704781141345832474,15179,1704781141345415427,imu_link,0.007524225526804885,0.0033006949241826873,-0.7213295383825735,-0.6925432755431409,0.0,0.0,0.0,0.0,0.0,0.0,0.0,0.0,0.0,-0.03490658503988659,0.027401669256310976,-0.00017453292519943296,0.0,0.0,0.0,0.0,0.0,0.0,0.0,0.0,0.0,0.097085835,-0.19417167,10.348957744999998,0.0,0.0,0.0,0.0,0.0,0.0,0.0,0.0,0.0
1704781141445154130,15180,1704781141444655205,imu_link,0.007587736544858118,0.0032389302146690556,-0.721208756415579,-0.6926686547366527,0.0,0.0,0.0,0.0,0.0,0.0,0.0,0.0,0.0,-0.02565634000431664,0.006806784082777885,-0.021118483949131385,0.0,0.0,0.0,0.0,0.0,0.0,0.0,0.0,0.0,-0.15984839499999998,-0.18730701499999997,9.503624514999998,0.0,0.0,0.0,0.0,0.0,0.0,0.0,0.0,0.0
1704781141545291518,15181,1704781141544826924,imu_link,0.00892096426010377,0.00146580786328718,-0.7204277857070355,-0.6934710328378798,0.0,0.0,0.0,0.0,0.0,0.0,0.0,0.0,0.0,0.028797932657906436,-0.0027925268031909274,-0.015184364492350668,0.0,0.0,0.0,0.0,0.0,0.0,0.0,0.0,0.0,-1.487668805,-0.53936575,10.526458109999998,0.0,0.0,0.0,0.0,0.0,0.0,0.0,0.0,0.0
1704781141645694647,15182,1704781141645094789,imu_link,0.007677579230746466,0.0019365659839183209,-0.7204874971322142,-0.693422721696876,0.0,0.0,0.0,0.0,0.0,0.0,0.0,0.0,0.0,0.00890117918517108,-0.020594885173533087,0.00471238898038469,0.0,0.0,0.0,0.0,0.0,0.0,0.0,0.0,0.0,-1.113054775,0.23830159499999998,8.756357785,0.0,0.0,0.0,0.0,0.0,0.0,0.0,0.0,0.0
1704781141745506226,15183,1704781141745077884,imu_link,0.007533235682689311,0.0030440620370872067,-0.7204233282781753,-0.693486994917035,0.0,0.0,0.0,0.0,0.0,0.0,0.0,0.0,0.0,-0.006283185307179587,-0.025132741228718346,-0.0019198621771937623,0.0,0.0,0.0,0.0,0.0,0.0,0.0,0.0,0.0,-0.371672035,-0.06864655,10.00082167,0.0,0.0,0.0,0.0,0.0,0.0,0.0,0.0,0.0
1704781141845218572,15184,1704781141844758408,imu_link,0.006721295883124333,0.00358288411679453,-0.7202999465466745,-0.6936209152901281,0.0,0.0,0.0,0.0,0.0,0.0,0.0,0.0,0.0,-0.01780235837034216,-0.034208453339088854,-0.01308996938995747,0.0,0.0,0.0,0.0,0.0,0.0,0.0,0.0,0.0,-0.163771055,0.030400614999999995,10.215587305,0.0,0.0,0.0,0.0,0.0,0.0,0.0,0.0,0.0
1704781141944797398,15185,1704781141944357709,imu_link,0.0050740976982513895,0.005896146906398558,-0.7201637925474769,-0.6937604780382358,0.0,0.0,0.0,0.0,0.0,0.0,0.0,0.0,0.0,0.0038397243543875246,-0.02391101075232232,0.01291543646475804,0.0,0.0,0.0,0.0,0.0,0.0,0.0,0.0,0.0,1.179739995,-0.2353596,8.042433665,0.0,0.0,0.0,0.0,0.0,0.0,0.0,0.0,0.0
1704781142045160799,15186,1704781142044747649,imu_link,0.006901578472663133,0.003893041123201187,-0.7201167349973754,-0.6938076825908738,0.0,0.0,0.0,0.0,0.0,0.0,0.0,0.0,0.0,-0.010821041362364843,0.02076941809873252,-0.015009831567151233,0.0,0.0,0.0,0.0,0.0,0.0,0.0,0.0,0.0,0.2353596,0.050013915,11.609112269999999,0.0,0.0,0.0,0.0,0.0,0.0,0.0,0.0,0.0
1704781142145265034,15187,1704781142144843588,imu_link,0.005268356071367512,0.005587916909832636,-0.7197423278461729,-0.6941988195866414,0.0,0.0,0.0,0.0,0.0,0.0,0.0,0.0,0.0,-0.056025068989017976,-0.011868238913561443,-0.008028514559173916,0.0,0.0,0.0,0.0,0.0,0.0,0.0,0.0,0.0,0.885540495,-0.19809432999999999,8.542572815,0.0,0.0,0.0,0.0,0.0,0.0,0.0,0.0,0.0
1704781142245474000,15188,1704781142245042141,imu_link,0.005966739262433804,0.004550319111663244,-0.7196284336592486,-0.694318810120893,0.0,0.0,0.0,0.0,0.0,0.0,0.0,0.0,0.0,-0.004363323129985824,-0.006806784082777885,-0.006632251157578452,0.0,0.0,0.0,0.0,0.0,0.0,0.0,0.0,0.0,0.01569064,-0.5334817599999999,11.243324225,0.0,0.0,0.0,0.0,0.0,0.0,0.0,0.0,0.0
1704781142345647294,15189,1704781142345190519,imu_link,0.004420107078197678,0.004830044298784359,-0.7194448450553095,-0.6945187169895646,0.0,0.0,0.0,0.0,0.0,0.0,0.0,0.0,0.0,-0.046949356878647465,-0.010821041362364843,-0.00715584993317675,0.0,0.0,0.0,0.0,0.0,0.0,0.0,0.0,0.0,0.15886772999999998,0.197113665,10.486250844999999,0.0,0.0,0.0,0.0,0.0,0.0,0.0,0.0,0.0
1704781142444578849,15190,1704781142444110389,imu_link,0.005780370822245576,0.004850443056429833,-0.71902030977684,-0.6949480949277657,0.0,0.0,0.0,0.0,0.0,0.0,0.0,0.0,0.0,0.03316125578789226,0.06178465552059926,-0.014660765716752367,0.0,0.0,0.0,0.0,0.0,0.0,0.0,0.0,0.0,-0.16573238499999998,-0.895347145,8.287599915,0.0,0.0,0.0,0.0,0.0,0.0,0.0,0.0,0.0
1704781142546229667,15191,1704781142545745687,imu_link,0.006672543008966535,0.0032586971479937584,-0.7187865290230829,-0.6951911850402306,0.0,0.0,0.0,0.0,0.0,0.0,0.0,0.0,0.0,0.008203047484373348,-0.04223696789826277,0.0015707963267948967,0.0,0.0,0.0,0.0,0.0,0.0,0.0,0.0,0.0,-1.195430635,0.042168594999999996,12.257331834999999,0.0,0.0,0.0,0.0,0.0,0.0,0.0,0.0,0.0
1704781142644743665,15192,1704781142644158521,imu_link,0.007309708326442669,0.002036302522802397,-0.7189121561266584,-0.6950595178900415,0.0,0.0,0.0,0.0,0.0,0.0,0.0,0.0,0.0,0.08098327729253689,0.07592182246175333,0.0031415926535897933,0.0,0.0,0.0,0.0,0.0,0.0,0.0,0.0,0.0,-1.048330885,-0.6864655000000001,7.74333084,0.0,0.0,0.0,0.0,0.0,0.0,0.0,0.0,0.0
1704781142744740215,15193,1704781142744306558,imu_link,0.005745063217860897,0.00354674473342926,-0.7181781465804041,-0.695826533429672,0.0,0.0,0.0,0.0,0.0,0.0,0.0,0.0,0.0,-0.007504915783575617,-0.08464846872172498,-0.02076941809873252,0.0,0.0,0.0,0.0,0.0,0.0,0.0,0.0,0.0,-0.54721107,0.793357985,11.39924996,0.0,0.0,0.0,0.0,0.0,0.0,0.0,0.0,0.0
1704781142844829245,15194,1704781142844472632,imu_link,0.006835876424829707,0.004919256410508321,-0.7179271376151171,-0.6960673076546815,0.0,0.0,0.0,0.0,0.0,0.0,0.0,0.0,0.0,-0.01937315469713706,0.013264502315156903,0.0038397243543875246,0.0,0.0,0.0,0.0,0.0,0.0,0.0,0.0,0.0,-0.20495898499999998,-0.9306510849999999,8.096370239999999,0.0,0.0,0.0,0.0,0.0,0.0,0.0,0.0,0.0
1704781142944999995,15195,1704781142944539163,imu_link,0.006203047227878752,0.0057761996979821895,-0.7182244519289299,-0.6957598683263687,0.0,0.0,0.0,0.0,0.0,0.0,0.0,0.0,0.0,0.03822271061867582,-0.03438298626428829,0.010471975511965976,0.0,0.0,0.0,0.0,0.0,0.0,0.0,0.0,0.0,0.6825428399999999,-0.48052585,10.51469013,0.0,0.0,0.0,0.0,0.0,0.0,0.0,0.0,0.0
1704781143045463084,15196,1704781143045007741,imu_link,0.005134215517088957,0.0031663605180927805,-0.7181192126552634,-0.695893964916695,0.0,0.0,0.0,0.0,0.0,0.0,0.0,0.0,0.0,0.02181661564992912,0.024085543677521744,-0.016231562043547268,0.0,0.0,0.0,0.0,0.0,0.0,0.0,0.0,0.0,0.6305675949999999,0.5197524499999999,9.738003449999999,0.0,0.0,0.0,0.0,0.0,0.0,0.0,0.0,0.0
1704781143144463062,15197,1704781143144097790,imu_link,0.006553693659152689,0.003247491759827568,-0.7178150690717738,-0.6961953960707988,0.0,0.0,0.0,0.0,0.0,0.0,0.0,0.0,0.0,-0.012391837689159739,0.029321531433504733,-0.006283185307179587,0.0,0.0,0.0,0.0,0.0,0.0,0.0,0.0,0.0,0.65704555,-0.10100849499999999,9.847837929999999,0.0,0.0,0.0,0.0,0.0,0.0,0.0,0.0,0.0
1704781143244830149,15198,1704781143244268574,imu_link,0.005316692669595487,0.003353899681446966,-0.71805763193729,-0.6959552581542834,0.0,0.0,0.0,0.0,0.0,0.0,0.0,0.0,0.0,-0.033510321638291124,-0.057246799465414,0.0015707963267948967,0.0,0.0,0.0,0.0,0.0,0.0,0.0,0.0,0.0,0.72176944,0.12650578499999998,9.974343714999998,0.0,0.0,0.0,0.0,0.0,0.0,0.0,0.0,0.0
1704781143345175045,15199,1704781143344535430,imu_link,0.006196911672486848,0.002377510644963059,-0.7177576832364017,-0.6962613402192956,0.0,0.0,0.0,0.0,0.0,0.0,0.0,0.0,0.0,0.011693705988362009,0.07976154681614087,-0.005759586531581288,0.0,0.0,0.0,0.0,0.0,0.0,0.0,0.0,0.0,0.47562252499999996,-0.31185147,9.038789305,0.0,0.0,0.0,0.0,0.0,0.0,0.0,0.0,0.0
1704781143445029208,15200,1704781143444609132,imu_link,0.005894305813986436,0.001942988189066644,-0.7180019697134521,-0.6960134003332631,0.0,0.0,0.0,0.0,0.0,0.0,0.0,0.0,0.0,-0.05515240436302082,-0.05462880558742251,0.014137166941154071,0.0,0.0,0.0,0.0,0.0,0.0,0.0,0.0,0.0,0.06472388999999999,0.32950344,11.32079676,0.0,0.0,0.0,0.0,0.0,0.0,0.0,0.0,0.0
1704781143545176490,15201,1704781143544795021,imu_link,0.00706004159624688,0.0023924753165645188,-0.7179398026853249,-0.6960652782567708,0.0,0.0,0.0,0.0,0.0,0.0,0.0,0.0,0.0,-0.027401669256310976,0.07016223593017204,-0.014486232791552934,0.0,0.0,0.0,0.0,0.0,0.0,0.0,0.0,0.0,0.21084297499999996,-0.51190713,8.357227129999998,0.0,0.0,0.0,0.0,0.0,0.0,0.0,0.0,0.0
1704781143644575363,15202,1704781143644221735,imu_link,0.006909956512345697,0.004358898377384169,-0.7173230205734744,-0.6966928567606244,0.0,0.0,0.0,0.0,0.0,0.0,0.0,0.0,0.0,-0.0497418836818384,-0.08639379797371932,-0.020245819323134222,0.0,0.0,0.0,0.0,0.0,0.0,0.0,0.0,0.0,-0.39128533499999996,0.102969825,11.47770316,0.0,0.0,0.0,0.0,0.0,0.0,0.0,0.0,0.0
1704781143744376480,15203,1704781143743970747,imu_link,0.006411718817724278,0.0049631005583232355,-0.7167108848870286,-0.697323285843161,0.0,0.0,0.0,0.0,0.0,0.0,0.0,0.0,0.0,0.11379546723003027,0.07417649320975901,0.009250245035569947,0.0,0.0,0.0,0.0,0.0,0.0,0.0,0.0,0.0,0.9061344599999999,-0.75707338,6.387071144999999,0.0,0.0,0.0,0.0,0.0,0.0,0.0,0.0,0.0
1704781143844522700,15204,1704781143844183723,imu_link,0.008117777939365254,0.0019675758572242014,-0.7171508283640643,-0.696867935625761,0.0,0.0,0.0,0.0,0.0,0.0,0.0,0.0,0.0,0.06318091892219473,0.013439035240356337,0.006108652381980153,0.0,0.0,0.0,0.0,0.0,0.0,0.0,0.0,0.0,-0.2353596,0.01372931,10.870671525,0.0,0.0,0.0,0.0,0.0,0.0,0.0,0.0,0.0
1704781143944966465,15205,1704781143944495111,imu_link,0.007751286833505141,0.0018307614638693867,-0.7164210885169144,-0.6976226700682302,0.0,0.0,0.0,0.0,0.0,0.0,0.0,0.0,0.0,0.00017453292519943296,0.012042771838760872,-0.031241393610698498,0.0,0.0,0.0,0.0,0.0,0.0,0.0,0.0,0.0,-0.18828767999999999,0.4148212949999999,9.241786959999999,0.0,0.0,0.0,0.0,0.0,0.0,0.0,0.0,0.0
1704781144044013120,15206,1704781144043596328,imu_link,0.008785374476295528,0.0030146933577592273,-0.7162344412766878,-0.697797932032147,0.0,0.0,0.0,0.0,0.0,0.0,0.0,0.0,0.0,-0.017278759594743863,-0.039968039870670144,0.020943951023931952,0.0,0.0,0.0,0.0,0.0,0.0,0.0,0.0,0.0,-0.18534568499999998,-0.09022118,10.7088618,0.0,0.0,0.0,0.0,0.0,0.0,0.0,0.0,0.0
1704781144144339154,15207,1704781144143839163,imu_link,0.008605572820446977,0.0024637360033185904,-0.7167843275568676,-0.697237478833566,0.0,0.0,0.0,0.0,0.0,0.0,0.0,0.0,0.0,0.03298672286269282,0.05585053606381855,0.003316125578789226,0.0,0.0,0.0,0.0,0.0,0.0,0.0,0.0,0.0,-0.20299765499999997,-0.461893215,9.533044465,0.0,0.0,0.0,0.0,0.0,0.0,0.0,0.0,0.0
1704781144244430069,15208,1704781144244005867,imu_link,0.008618181121937211,0.001596167491022421,-0.716482387293348,-0.6975501185591721,0.0,0.0,0.0,0.0,0.0,0.0,0.0,0.0,0.0,-0.027052603405912107,-0.016929693744344998,-0.01361356816555577,0.0,0.0,0.0,0.0,0.0,0.0,0.0,0.0,0.0,-0.12748644999999997,0.25497289999999995,9.84195394,0.0,0.0,0.0,0.0,0.0,0.0,0.0,0.0,0.0
1704781144344508364,15209,1704781144344102633,imu_link,0.01108683900826518,0.0016233140399096267,-0.7161166326667204,-0.697890690058558,0.0,0.0,0.0,0.0,0.0,0.0,0.0,0.0,0.0,-0.010821041362364843,0.06702064327658225,-0.007504915783575617,0.0,0.0,0.0,0.0,0.0,0.0,0.0,0.0,0.0,0.006864655,-0.4903325,9.152546445,0.0,0.0,0.0,0.0,0.0,0.0,0.0,0.0,0.0
1704781144444731563,15210,1704781144444349933,imu_link,0.009087933465208912,0.0036902752951971183,-0.7156828803804194,-0.6983565035595817,0.0,0.0,0.0,0.0,0.0,0.0,0.0,0.0,0.0,0.0024434609527920616,-0.09075712110370514,-0.023212879051524585,0.0,0.0,0.0,0.0,0.0,0.0,0.0,0.0,0.0,0.22163028999999998,-0.8119906199999999,10.146940755,0.0,0.0,0.0,0.0,0.0,0.0,0.0,0.0,0.0
1704781144544915650,15211,1704781144544438889,imu_link,0.007814802287093038,0.0018823703352353572,-0.715446056198225,-0.6986217332845729,0.0,0.0,0.0,0.0,0.0,0.0,0.0,0.0,0.0,0.005061454830783556,0.06457718232379019,-0.0020943951023931952,0.0,0.0,0.0,0.0,0.0,0.0,0.0,0.0,0.0,-0.21868829499999998,0.189268345,9.764481405,0.0,0.0,0.0,0.0,0.0,0.0,0.0,0.0,0.0
1704781144644131676,15212,1704781144643739486,imu_link,0.007009439881087948,0.002061628767053248,-0.7158115118667775,-0.6982553235875675,0.0,0.0,0.0,0.0,0.0,0.0,0.0,0.0,0.0,-0.04590215932745086,-0.06579891280018622,0.002617993877991494,0.0,0.0,0.0,0.0,0.0,0.0,0.0,0.0,0.0,-0.13042844499999998,0.4118793,10.215587305,0.0,0.0,0.0,0.0,0.0,0.0,0.0,0.0,0.0
1704781144744178150,15213,1704781144743799932,imu_link,0.007800971385070696,0.003114368197142098,-0.7152589440221372,-0.6988090501363869,0.0,0.0,0.0,0.0,0.0,0.0,0.0,0.0,0.0,0.02583087292951608,0.06457718232379019,-0.02897246558310587,0.0,0.0,0.0,0.0,0.0,0.0,0.0,0.0,0.0,-0.367749375,-0.77080269,9.36927341,0.0,0.0,0.0,0.0,0.0,0.0,0.0,0.0,0.0
1704781144844309822,15214,1704781144843923103,imu_link,0.007997796400984889,0.002306015446346258,-0.7145297581036723,-0.6995555319842717,0.0,0.0,0.0,0.0,0.0,0.0,0.0,0.0,0.0,0.07853981633974483,-0.04223696789826277,0.002967059728390361,0.0,0.0,0.0,0.0,0.0,0.0,0.0,0.0,0.0,-0.895347145,-0.11375713999999998,9.32808548,0.0,0.0,0.0,0.0,0.0,0.0,0.0,0.0,0.0
1704781144944601422,15215,1704781144944153941,imu_link,0.008192305291099766,0.0013845684263568627,-0.7147151447156684,-0.6993663067508694,0.0,0.0,0.0,0.0,0.0,0.0,0.0,0.0,0.0,0.031241393610698498,0.029321531433504733,0.0006981317007977319,0.0,0.0,0.0,0.0,0.0,0.0,0.0,0.0,0.0,-1.3768536599999999,0.020593965,10.27344654,0.0,0.0,0.0,0.0,0.0,0.0,0.0,0.0,0.0
1704781145043762792,15216,1704781145043362052,imu_link,0.007248122167021972,0.0032829124058005774,-0.7142818293894013,-0.6998129431607548,0.0,0.0,0.0,0.0,0.0,0.0,0.0,0.0,0.0,-0.004014257279586958,-0.05358160803622591,-0.023387411976724018,0.0,0.0,0.0,0.0,0.0,0.0,0.0,0.0,0.0,-0.23830159499999998,-0.306948145,8.790681059999999,0.0,0.0,0.0,0.0,0.0,0.0,0.0,0.0,0.0
1704781145143870910,15217,1704781145143459416,imu_link,0.008114837119336346,0.0031640779602887417,-0.7139157903591848,-0.7001773934546931,0.0,0.0,0.0,0.0,0.0,0.0,0.0,0.0,0.0,0.006283185307179587,0.03228859116189509,0.0054105206811824215,0.0,0.0,0.0,0.0,0.0,0.0,0.0,0.0,0.0,-0.47562252499999996,-0.35500073,9.86156724,0.0,0.0,0.0,0.0,0.0,0.0,0.0,0.0,0.0
1704781145244226981,15218,1704781145243763188,imu_link,0.006572307408022882,0.002968041231921007,-0.7143442945004533,-0.6997572610707442,0.0,0.0,0.0,0.0,0.0,0.0,0.0,0.0,0.0,-0.012391837689159739,-0.02897246558310587,0.017104226669544427,0.0,0.0,0.0,0.0,0.0,0.0,0.0,0.0,0.0,-0.026477955,0.30008348999999995,9.804688669999999,0.0,0.0,0.0,0.0,0.0,0.0,0.0,0.0,0.0
1704781145344093110,15219,1704781145343719827,imu_link,0.0068121296557232,0.0035887996635153912,-0.7144635823537957,-0.6996302629937544,0.0,0.0,0.0,0.0,0.0,0.0,0.0,0.0,0.0,-0.010297442586766544,-0.009773843811168246,-0.008377580409572781,0.0,0.0,0.0,0.0,0.0,0.0,0.0,0.0,0.0,-0.026477955,-0.4864098399999999,9.480088555,0.0,0.0,0.0,0.0,0.0,0.0,0.0,0.0,0.0
1704781145443947092,15220,1704781145443543370,imu_link,0.0063216918304515425,0.0033357170136423947,-0.7143427024010619,-0.6997595392209767,0.0,0.0,0.0,0.0,0.0,0.0,0.0,0.0,0.0,0.00017453292519943296,0.015707963267948967,0.004363323129985824,0.0,0.0,0.0,0.0,0.0,0.0,0.0,0.0,0.0,0.39618865999999997,-0.26576021499999997,9.16137243,0.0,0.0,0.0,0.0,0.0,0.0,0.0,0.0,0.0
1704781145544764044,15221,1704781145544339509,imu_link,0.007073341940979996,0.002233305261707448,-0.7144079530171726,-0.6996901148702955,0.0,0.0,0.0,0.0,0.0,0.0,0.0,0.0,0.0,-0.0017453292519943296,-0.012217304763960306,-0.00017453292519943296,0.0,0.0,0.0,0.0,0.0,0.0,0.0,0.0,0.0,-0.35303939999999995,0.0029419949999999998,11.079553169999999,0.0,0.0,0.0,0.0,0.0,0.0,0.0,0.0,0.0
1704781145644159661,15222,1704781145643653458,imu_link,0.006632579420387501,0.003032116156960125,-0.7145271931136482,-0.6995696573344031,0.0,0.0,0.0,0.0,0.0,0.0,0.0,0.0,0.0,0.008726646259971648,0.013788101090755204,0.0031415926535897933,0.0,0.0,0.0,0.0,0.0,0.0,0.0,0.0,0.0,0.287334845,-0.24320491999999996,8.891689555,0.0,0.0,0.0,0.0,0.0,0.0,0.0,0.0,0.0
1704781145743865483,15223,1704781145743415146,imu_link,0.007316070345228477,0.0026067247006892717,-0.7144677520135453,-0.6996252650053095,0.0,0.0,0.0,0.0,0.0,0.0,0.0,0.0,0.0,0.014660765716752367,-0.024609142453120045,0.0020943951023931952,0.0,0.0,0.0,0.0,0.0,0.0,0.0,0.0,0.0,-0.140235095,-0.19907499499999998,10.223432625,0.0,0.0,0.0,0.0,0.0,0.0,0.0,0.0,0.0
1704781145843701159,15224,1704781145843271084,imu_link,0.006890100636575849,0.00192767736188939,-0.7148971206105812,-0.6991930473881347,0.0,0.0,0.0,0.0,0.0,0.0,0.0,0.0,0.0,0.021642082724729686,0.031939525311496235,0.017278759594743863,0.0,0.0,0.0,0.0,0.0,0.0,0.0,0.0,0.0,-0.05295591,-0.018632634999999998,9.847837929999999,0.0,0.0,0.0,0.0,0.0,0.0,0.0,0.0,0.0
1704781145944359936,15225,1704781145943965626,imu_link,0.006762196526125851,0.0022977060732560467,-0.7150180818815619,-0.6990694785408351,0.0,0.0,0.0,0.0,0.0,0.0,0.0,0.0,0.0,-0.01658062789394613,-0.033510321638291124,-0.00471238898038469,0.0,0.0,0.0,0.0,0.0,0.0,0.0,0.0,0.0,-0.008825985,-0.059820565,9.592865029999999,0.0,0.0,0.0,0.0,0.0,0.0,0.0,0.0,0.0
1704781146043472833,15226,1704781146043087703,imu_link,0.007006971981079692,0.0024257238034198474,-0.7152006360583022,-0.6988798669224103,0.0,0.0,0.0,0.0,0.0,0.0,0.0,0.0,0.0,-0.010297442586766544,0.02234021442552742,0.012391837689159739,0.0,0.0,0.0,0.0,0.0,0.0,0.0,0.0,0.0,-0.11964113,-0.42266661499999997,9.987092359999998,0.0,0.0,0.0,0.0,0.0,0.0,0.0,0.0,0.0
1704781146143668638,15227,1704781146143189674,imu_link,0.006768849294662798,0.0016818615548734829,-0.7151417434913419,-0.6989446621422188,0.0,0.0,0.0,0.0,0.0,0.0,0.0,0.0,0.0,-0.0054105206811824215,0.028274333882308142,-0.00715584993317675,0.0,0.0,0.0,0.0,0.0,0.0,0.0,0.0,0.0,-0.016671304999999997,0.24908890999999997,9.46930124,0.0,0.0,0.0,0.0,0.0,0.0,0.0,0.0,0.0
1704781146243397610,15228,1704781146243033734,imu_link,0.006710077354871011,0.0013755714049599587,-0.7154472688442,-0.6986331570778589,0.0,0.0,0.0,0.0,0.0,0.0,0.0,0.0,0.0,-0.008552113334772213,-0.023038346126325153,0.018500490071139894,0.0,0.0,0.0,0.0,0.0,0.0,0.0,0.0,0.0,0.142196425,0.028439284999999995,10.30090516,0.0,0.0,0.0,0.0,0.0,0.0,0.0,0.0,0.0
1704781146344090955,15229,1704781146343658609,imu_link,0.0065190636627961256,0.0018081343332896843,-0.7157511164991013,-0.6983226845015729,0.0,0.0,0.0,0.0,0.0,0.0,0.0,0.0,0.0,-0.045727626402251434,-0.005934119456780722,0.0012217304763960308,0.0,0.0,0.0,0.0,0.0,0.0,0.0,0.0,0.0,0.08924051499999999,0.09218251,9.238844965,0.0,0.0,0.0,0.0,0.0,0.0,0.0,0.0,0.0
1704781146444031695,15230,1704781146443698980,imu_link,0.007432440710224962,0.002746996253995167,-0.7159310854013147,-0.698125987048731,0.0,0.0,0.0,0.0,0.0,0.0,0.0,0.0,0.0,-0.02076941809873252,-0.0019198621771937623,0.005585053606381855,0.0,0.0,0.0,0.0,0.0,0.0,0.0,0.0,0.0,-0.138273765,-0.65704555,10.317576465,0.0,0.0,0.0,0.0,0.0,0.0,0.0,0.0,0.0
1704781146544073532,15231,1704781146543523595,imu_link,0.006997713176263289,0.0029278940696489657,-0.7160522507215609,-0.6980054682330266,0.0,0.0,0.0,0.0,0.0,0.0,0.0,0.0,0.0,0.00471238898038469,-0.013439035240356337,0.00645771823237902,0.0,0.0,0.0,0.0,0.0,0.0,0.0,0.0,0.0,-0.12356378999999999,-0.04314926,9.529121804999999,0.0,0.0,0.0,0.0,0.0,0.0,0.0,0.0,0.0
1704781146643733032,15232,1704781146643327011,imu_link,0.00643574960729268,0.003354973129810086,-0.7162940460291111,-0.6977608221343014,0.0,0.0,0.0,0.0,0.0,0.0,0.0,0.0,0.0,0.0012217304763960308,0.013962634015954637,0.00715584993317675,0.0,0.0,0.0,0.0,0.0,0.0,0.0,0.0,0.0,0.177500365,0.014709975,9.672298894999999,0.0,0.0,0.0,0.0,0.0,0.0,0.0,0.0,0.0
1704781146743557427,15233,1704781146743144445,imu_link,0.0076688329480770045,0.0033731344161450493,-0.7164765184637208,-0.6975609001768451,0.0,0.0,0.0,0.0,0.0,0.0,0.0,0.0,0.0,0.015533430342749534,-0.005235987755982988,0.007679448708775049,0.0,0.0,0.0,0.0,0.0,0.0,0.0,0.0,0.0,-0.18828767999999999,-0.42560861,10.394068335,0.0,0.0,0.0,0.0,0.0,0.0,0.0,0.0,0.0
1704781146843767671,15234,1704781146843412476,imu_link,0.006984113424597448,0.0036762318753224025,-0.7168402442975497,-0.6971927793905359,0.0,0.0,0.0,0.0,0.0,0.0,0.0,0.0,0.0,0.03089232776029963,0.0036651914291880917,0.01308996938995747,0.0,0.0,0.0,0.0,0.0,0.0,0.0,0.0,0.0,-0.034323275,-0.38049802,9.23590297,0.0,0.0,0.0,0.0,0.0,0.0,0.0,0.0,0.0
1704781146943751709,15235,1704781146943243055,imu_link,0.0068843506669243,0.00194811259646426,-0.716968559791724,-0.6970687877414878,0.0,0.0,0.0,0.0,0.0,0.0,0.0,0.0,0.0,0.004537856055185257,0.005934119456780722,0.0008726646259971648,0.0,0.0,0.0,0.0,0.0,0.0,0.0,0.0,0.0,-0.33734875999999997,0.532501095,10.234219940000001,0.0,0.0,0.0,0.0,0.0,0.0,0.0,0.0,0.0
1704781147043419904,15236,1704781147043053499,imu_link,0.007551028853879576,0.0027617294308121534,-0.7171483619127159,-0.6968741506324562,0.0,0.0,0.0,0.0,0.0,0.0,0.0,0.0,0.0,-0.017453292519943295,0.018500490071139894,0.009948376736367677,0.0,0.0,0.0,0.0,0.0,0.0,0.0,0.0,0.0,0.034323275,-0.11866046499999999,9.309452845,0.0,0.0,0.0,0.0,0.0,0.0,0.0,0.0,0.0
1704781147143269307,15237,1704781147142877860,imu_link,0.007732182238921586,0.0029528522465266252,-0.7174515955484896,-0.6965591877696832,0.0,0.0,0.0,0.0,0.0,0.0,0.0,0.0,0.0,0.022689280275926284,-0.02495820830351891,0.012740903539558606,0.0,0.0,0.0,0.0,0.0,0.0,0.0,0.0,0.0,-0.014709975,-0.31773545999999997,9.73408079,0.0,0.0,0.0,0.0,0.0,0.0,0.0,0.0,0.0
1704781147243215370,15238,1704781147242821547,imu_link,0.007934093946011092,0.0017853655891712397,-0.7176376218383261,-0.6963692313314831,0.0,0.0,0.0,0.0,0.0,0.0,0.0,0.0,0.0,0.02617993877991494,0.041189770347066175,-0.0027925268031909274,0.0,0.0,0.0,0.0,0.0,0.0,0.0,0.0,0.0,-0.16082906,0.02941995,10.200877329999999,0.0,0.0,0.0,0.0,0.0,0.0,0.0,0.0,0.0
1704781147344085592,15239,1704781147343479519,imu_link,0.008241322797838936,0.001853133606257218,-0.7177589411128783,-0.696240439034461,0.0,0.0,0.0,0.0,0.0,0.0,0.0,0.0,0.0,-0.027401669256310976,-0.022689280275926284,0.012217304763960306,0.0,0.0,0.0,0.0,0.0,0.0,0.0,0.0,0.0,-0.25105024,-0.047071919999999996,9.40065469,0.0,0.0,0.0,0.0,0.0,0.0,0.0,0.0,0.0
1704781147443945784,15240,1704781147443448063,imu_link,0.007933314225138837,0.0017888271119189752,-0.7179413835965642,-0.6960560554599177,0.0,0.0,0.0,0.0,0.0,0.0,0.0,0.0,0.0,-0.004014257279586958,0.028448866807507567,-0.005061454830783556,0.0,0.0,0.0,0.0,0.0,0.0,0.0,0.0,0.0,0.0058839899999999995,-0.24908890999999997,9.78311404,0.0,0.0,0.0,0.0,0.0,0.0,0.0,0.0,0.0
1704781147544009686,15241,1704781147543597929,imu_link,0.008858760585987738,0.00186018361218032,-0.7175765405024548,-0.6964208286649229,0.0,0.0,0.0,0.0,0.0,0.0,0.0,0.0,0.0,-0.015533430342749534,-0.0012217304763960308,-0.00017453292519943296,0.0,0.0,0.0,0.0,0.0,0.0,0.0,0.0,0.0,-0.02745862,-0.07256921,9.09272588,0.0,0.0,0.0,0.0,0.0,0.0,0.0,0.0,0.0
1704781147643164501,15242,1704781147642700193,imu_link,0.009596382869604948,0.001998818664324852,-0.7178798636286662,-0.6960979927828085,0.0,0.0,0.0,0.0,0.0,0.0,0.0,0.0,0.0,0.010821041362364843,0.02809980095710871,0.008377580409572781,0.0,0.0,0.0,0.0,0.0,0.0,0.0,0.0,0.0,0.12552512,-0.675678185,9.32416282,0.0,0.0,0.0,0.0,0.0,0.0,0.0,0.0,0.0
1704781147743249183,15243,1704781147742862965,imu_link,0.009748148244309751,0.00015313535966220235,-0.7181251856370631,-0.695845649486366,0.0,0.0,0.0,0.0,0.0,0.0,0.0,0.0,0.0,0.02757620218151041,0.0027925268031909274,0.008552113334772213,0.0,0.0,0.0,0.0,0.0,0.0,0.0,0.0,0.0,-0.220649625,-0.12748644999999997,11.037384574999999,0.0,0.0,0.0,0.0,0.0,0.0,0.0,0.0,0.0
1704781147843224251,15244,1704781147842801312,imu_link,0.009372217152472783,0.0005166972265331889,-0.7180644438820459,-0.6959133200348958,0.0,0.0,0.0,0.0,0.0,0.0,0.0,0.0,0.0,-0.017104226669544427,0.02617993877991494,-0.017627825445142728,0.0,0.0,0.0,0.0,0.0,0.0,0.0,0.0,0.0,0.17161637500000002,0.08041453,8.523940179999999,0.0,0.0,0.0,0.0,0.0,0.0,0.0,0.0,0.0
